dd/mm/yyyy,hh:mm:ss.ms,accX[mg],accY[mg],accZ[mg],gyroX[mdps],gyroY[mdps],gyroZ[mdps],magX[mG],magY[mG],magZ[mG],T[degC],rH[%],Press[hPa],
16/06/2023,20:20:39.138,-956,174,-210,-19,-19,-10,646,108,465,26.299999,48.900002,980.140015
16/06/2023,20:20:39.138,-956,174,-210,-19,-19,-10,646,108,465,26.299999,48.900002,980.140015
16/06/2023,20:20:39.139,-956,174,-210,-19,-19,-10,646,108,465,26.299999,48.900002,980.140015
16/06/2023,20:20:39.140,-956,174,-210,-19,-19,-10,646,108,465,26.299999,48.900002,980.140015
16/06/2023,20:20:39.143,-956,174,-210,-19,-19,-10,646,108,465,26.299999,48.900002,980.140015
16/06/2023,20:20:39.144,-956,174,-210,-19,-19,-10,646,108,465,26.299999,48.900002,980.140015
16/06/2023,20:20:39.144,-956,174,-210,-19,-19,-10,646,108,465,26.299999,48.900002,980.140015
16/06/2023,20:20:39.145,-956,174,-210,-19,-19,-10,646,108,465,26.299999,48.900002,980.140015
16/06/2023,20:20:39.145,-956,174,-210,-19,-19,-10,646,108,465,26.299999,48.900002,980.140015
16/06/2023,20:20:39.146,-956,174,-210,-19,-19,-10,646,108,465,26.299999,48.900002,980.140015
16/06/2023,20:20:39.155,-949,169,-215,-19,-19,-10,646,108,465,26.299999,48.900002,980.140015
16/06/2023,20:20:39.165,-948,173,-213,-26,-28,-10,657,135,484,26.299999,48.900002,980.140015
16/06/2023,20:20:39.174,-950,175,-207,-28,-26,-11,646,124,487,26.299999,48.900002,980.140015
16/06/2023,20:20:39.183,-954,176,-200,-31,-24,-11,661,120,480,26.299999,48.900002,980.140015
16/06/2023,20:20:39.193,-957,179,-188,-34,-19,-12,661,121,475,26.299999,48.900002,980.140015
16/06/2023,20:20:39.202,-959,179,-182,-36,-14,-12,657,136,480,26.299999,48.900002,980.140015
16/06/2023,20:20:39.212,-955,178,-191,-40,-12,-13,636,118,484,26.299999,48.900002,980.140015
16/06/2023,20:20:39.220,-952,174,-205,-47,-7,-11,636,118,484,26.299999,48.900002,980.140015
16/06/2023,20:20:39.230,-950,172,-213,-59,-6,-9,657,126,483,26.299999,48.900002,980.140015
16/06/2023,20:20:39.240,-949,179,-217,-73,-5,-10,667,117,472,26.299999,48.900002,980.140015
16/06/2023,20:20:39.249,-949,183,-219,-86,-5,-11,666,120,475,26.299999,48.900002,980.140015
16/06/2023,20:20:39.258,-946,181,-215,-99,-9,-11,654,127,490,26.299999,48.900002,980.140015
16/06/2023,20:20:39.268,-951,183,-206,-109,-9,-13,655,111,480,26.299999,48.900002,980.140015
16/06/2023,20:20:39.277,-957,186,-200,-115,-4,-10,648,123,465,26.299999,48.900002,980.140015
16/06/2023,20:20:39.286,-955,186,-203,-116,0,-7,648,123,471,26.299999,48.900002,980.140015
16/06/2023,20:20:39.296,-954,183,-206,-120,-1,-6,651,114,477,26.299999,48.900002,980.140015
16/06/2023,20:20:39.305,-952,170,-202,-118,-13,-5,649,135,490,26.299999,48.900002,980.140015
16/06/2023,20:20:39.314,-946,163,-192,-110,-36,-2,649,135,490,26.299999,48.900002,980.140015
16/06/2023,20:20:39.323,-944,169,-159,-115,-58,-6,663,108,474,26.299999,48.900002,980.140015
16/06/2023,20:20:39.333,-948,181,-114,-130,-81,-9,648,127,483,26.299999,48.900002,980.140015
16/06/2023,20:20:39.343,-953,183,-113,-126,-80,-13,651,118,459,26.299999,48.900002,980.140015
16/06/2023,20:20:39.351,-957,170,-156,-105,-65,-7,670,111,469,26.299999,48.900002,980.140015
16/06/2023,20:20:39.361,-957,160,-197,-90,-52,3,658,121,466,26.299999,48.900002,980.140015
16/06/2023,20:20:39.371,-949,162,-215,-97,-43,10,660,118,487,26.299999,48.900002,980.140015
16/06/2023,20:20:39.380,-936,162,-215,-113,-38,9,649,106,474,26.299999,48.900002,980.140015
16/06/2023,20:20:39.390,-930,161,-213,-113,-38,9,669,126,489,26.299999,48.900002,980.140015
16/06/2023,20:20:39.399,-936,172,-210,-115,-28,11,648,126,477,26.299999,48.900002,980.140015
16/06/2023,20:20:39.408,-944,187,-210,-99,-14,15,648,126,477,26.299999,48.900002,980.140015
16/06/2023,20:20:39.417,-949,200,-213,-77,-7,22,654,106,469,26.299999,48.900002,980.140015
16/06/2023,20:20:39.427,-950,214,-211,-65,-10,27,664,108,471,26.299999,48.900002,980.140015
16/06/2023,20:20:39.436,-946,220,-201,-66,-19,30,657,123,489,26.299999,48.900002,980.140015
16/06/2023,20:20:39.446,-947,218,-190,-79,-24,28,651,111,475,26.299999,48.900002,980.140015
16/06/2023,20:20:39.455,-947,209,-176,-100,-22,25,658,124,477,26.299999,48.900002,980.140015
16/06/2023,20:20:39.464,-951,209,-176,-110,-17,20,649,103,489,26.299999,48.900002,980.140015
16/06/2023,20:20:39.474,-950,195,-164,-95,-9,22,667,112,475,26.299999,48.900002,980.140015
16/06/2023,20:20:39.483,-951,184,-167,-67,-9,30,645,114,468,26.299999,48.900002,980.140015
16/06/2023,20:20:39.493,-953,186,-175,-44,-8,36,642,118,477,26.299999,48.900002,980.140015
16/06/2023,20:20:39.501,-955,191,-181,-37,-2,41,642,118,477,26.299999,48.900002,980.140015
16/06/2023,20:20:39.511,-957,188,-186,-42,16,48,648,118,472,26.299999,48.900002,980.140015
16/06/2023,20:20:39.521,-956,179,-188,-51,27,54,661,112,481,26.299999,48.900002,980.140015
16/06/2023,20:20:39.530,-957,169,-189,-58,29,55,667,117,475,26.299999,48.900002,980.140015
16/06/2023,20:20:39.539,-964,159,-184,-41,42,57,666,117,468,26.299999,48.900002,980.140015
16/06/2023,20:20:39.549,-988,153,-140,-14,26,31,663,118,484,26.299999,48.900002,980.140015
16/06/2023,20:20:39.558,-989,148,-120,26,41,56,654,117,472,26.299999,48.900002,980.140015
16/06/2023,20:20:39.577,-973,179,-133,51,16,76,663,115,475,26.299999,48.900002,980.140015
16/06/2023,20:20:39.586,-970,181,-137,0,-31,74,663,115,475,26.299999,48.900002,980.140015
16/06/2023,20:20:39.595,-966,155,-150,-59,-79,66,654,124,468,26.299999,48.900002,980.140015
16/06/2023,20:20:39.605,-972,106,-148,-101,-111,51,663,105,481,26.299999,48.900002,980.140015
16/06/2023,20:20:39.614,-982,75,-141,-86,-111,40,673,109,474,26.299999,48.900002,980.140015
16/06/2023,20:20:39.624,-948,64,-170,3,-101,37,652,99,454,26.299999,48.900002,980.140015
16/06/2023,20:20:39.633,-971,74,-155,136,-65,33,660,93,459,26.299999,48.900002,980.140015
16/06/2023,20:20:39.642,-975,70,-125,196,-75,39,664,105,487,26.299999,48.900002,980.140015
16/06/2023,20:20:39.652,-956,56,-124,212,-77,69,652,111,471,26.299999,48.900002,980.140015
16/06/2023,20:20:39.661,-991,54,-124,154,-53,84,667,105,471,26.299999,48.900002,980.140015
16/06/2023,20:20:39.671,-1013,61,-127,36,-12,84,673,109,478,26.299999,48.900002,980.140015
16/06/2023,20:20:39.679,-1026,87,-110,-29,-125,69,673,109,478,26.299999,48.900002,980.140015
16/06/2023,20:20:39.689,-1005,79,-116,-59,-117,89,660,100,495,26.299999,48.900002,980.140015
16/06/2023,20:20:39.699,-988,63,-143,-47,-90,113,661,111,462,26.299999,48.900002,980.140015
16/06/2023,20:20:39.708,-966,93,-164,-21,-94,144,657,109,466,26.299999,48.900002,980.140015
16/06/2023,20:20:39.717,-956,157,-175,-14,-123,161,678,99,471,26.299999,48.900002,980.140015
16/06/2023,20:20:39.730,-960,153,-190,-60,-130,150,661,114,463,26.299999,48.900002,980.140015
16/06/2023,20:20:39.736,-966,126,-236,-60,-130,150,678,103,483,26.299999,48.900002,980.140015
16/06/2023,20:20:39.746,-954,142,-237,-171,-132,144,663,93,463,26.299999,48.900002,980.140015
16/06/2023,20:20:39.755,-940,127,-198,-220,-112,134,688,96,468,26.299999,48.900002,980.140015
16/06/2023,20:20:39.764,-943,92,-187,-194,-103,119,676,81,475,26.299999,48.900002,980.140015
16/06/2023,20:20:39.773,-942,69,-179,-148,-76,129,676,81,475,26.299999,48.900002,980.140015
16/06/2023,20:20:39.783,-930,59,-162,-128,-42,133,667,96,463,26.299999,48.900002,980.140015
16/06/2023,20:20:39.792,-918,56,-145,-136,-24,137,655,90,465,26.299999,48.900002,980.140015
16/06/2023,20:20:39.802,-918,67,-145,-138,-1,142,663,85,459,26.299999,48.900002,980.140015
16/06/2023,20:20:39.811,-921,67,-134,-130,46,148,672,88,471,26.299999,48.900002,980.140015
16/06/2023,20:20:39.820,-920,109,-91,-130,104,154,663,75,471,26.299999,48.900002,980.140015
16/06/2023,20:20:39.830,-923,161,-23,-123,171,151,661,72,475,26.299999,48.900002,980.140015
16/06/2023,20:20:39.839,-955,145,10,5,256,151,663,87,465,26.299999,48.900002,980.140015
16/06/2023,20:20:39.849,-949,103,-55,231,357,186,655,81,477,26.299999,48.900002,980.140015
16/06/2023,20:20:39.857,-890,114,-114,382,349,200,655,81,477,26.299999,48.900002,980.140015
16/06/2023,20:20:39.867,-859,136,-98,501,263,185,663,78,465,26.299999,48.900002,980.140015
16/06/2023,20:20:39.877,-881,180,-54,574,201,154,669,96,471,26.299999,48.900002,980.140015
16/06/2023,20:20:39.886,-912,319,12,445,229,119,657,73,487,26.299999,48.900002,980.140015
16/06/2023,20:20:39.895,-909,423,-30,95,250,46,657,73,487,26.299999,48.900002,980.140015
16/06/2023,20:20:39.905,-887,388,-89,-239,247,-25,675,82,478,26.299999,48.900002,980.140015
16/06/2023,20:20:39.914,-875,300,-51,-481,217,-72,661,87,480,26.299999,48.900002,980.140015
16/06/2023,20:20:39.924,-861,154,-52,-374,300,-95,663,78,490,26.299999,48.900002,980.140015
16/06/2023,20:20:39.936,-881,-59,-64,182,441,-46,642,93,498,26.299999,48.900002,980.140015
16/06/2023,20:20:39.942,-953,-200,-6,816,549,66,640,84,472,26.299999,48.900002,980.140015
16/06/2023,20:20:39.951,-1016,-167,57,1101,581,159,640,84,472,26.299999,48.900002,980.140015
16/06/2023,20:20:39.960,-1035,-57,55,775,584,111,648,76,498,26.299999,48.900002,980.140015
16/06/2023,20:20:39.970,-1048,-10,45,280,388,41,618,99,486,26.299999,48.900002,980.140015
16/06/2023,20:20:39.979,-1057,-23,53,56,256,18,630,115,484,26.299999,48.900002,980.140015
16/06/2023,20:20:39.998,-1019,19,-107,313,161,74,619,96,499,26.299999,48.900002,980.140015
16/06/2023,20:20:40.008,-987,47,-251,405,159,105,631,108,498,26.299999,48.900002,980.140015
16/06/2023,20:20:40.017,-955,69,-315,270,161,132,651,96,498,26.299999,48.900002,980.140015
16/06/2023,20:20:40.027,-933,66,-348,66,197,144,639,93,496,26.299999,48.900002,980.140015
16/06/2023,20:20:40.036,-947,15,-363,-4,276,159,637,109,522,26.299999,48.900002,980.140015
16/06/2023,20:20:40.045,-995,-27,-364,76,339,185,637,109,522,26.299999,48.900002,980.140015
16/06/2023,20:20:40.055,-1047,-46,-343,233,364,220,619,99,517,26.299999,48.900002,980.140015
16/06/2023,20:20:40.064,-1129,-22,-265,419,308,253,636,93,502,26.299999,48.900002,980.140015
16/06/2023,20:20:40.073,-1207,8,-204,509,285,229,624,106,508,26.299999,48.900002,980.140015
16/06/2023,20:20:40.083,-1286,99,-88,509,285,229,633,97,522,26.299999,48.900002,980.140015
16/06/2023,20:20:40.092,-1363,175,72,443,299,171,622,109,511,26.799999,49.599998,980.469971
16/06/2023,20:20:40.102,-1359,129,235,293,323,93,621,97,535,26.799999,49.599998,980.469971
16/06/2023,20:20:40.111,-1341,41,329,166,183,11,610,100,513,26.799999,49.599998,980.469971
16/06/2023,20:20:40.120,-1329,-95,286,127,108,-49,610,100,513,26.799999,49.599998,980.469971
16/06/2023,20:20:40.129,-1329,-95,286,232,49,-82,630,91,522,26.799999,49.599998,980.469971
16/06/2023,20:20:40.139,-1373,-297,198,300,-6,-98,639,100,526,26.799999,49.599998,980.469971
16/06/2023,20:20:40.148,-1373,-297,198,186,-81,-102,619,117,514,26.799999,49.599998,980.469971
16/06/2023,20:20:40.158,-1423,-293,181,96,-106,-78,639,111,520,26.799999,49.599998,980.469971
16/06/2023,20:20:40.167,-1389,-207,155,8,-126,-42,616,120,516,26.799999,49.599998,980.469971
16/06/2023,20:20:40.177,-1276,-68,201,-175,-145,-54,636,111,508,26.799999,49.599998,980.469971
16/06/2023,20:20:40.186,-1198,58,267,-360,-192,-115,634,106,508,26.799999,49.599998,980.469971
16/06/2023,20:20:40.195,-1159,142,206,-429,-256,-186,628,102,511,26.799999,49.599998,980.469971
16/06/2023,20:20:40.205,-1160,221,102,-290,-245,-213,628,111,504,26.799999,49.599998,980.469971
16/06/2023,20:20:40.213,-1185,311,143,-305,-368,-280,628,111,504,26.799999,49.599998,980.469971
16/06/2023,20:20:40.223,-1153,335,237,-278,-620,-357,612,97,516,26.799999,49.599998,980.469971
16/06/2023,20:20:40.233,-1050,313,270,-26,-840,-437,651,100,508,26.799999,49.599998,980.469971
16/06/2023,20:20:40.242,-926,308,259,39,-1078,-502,651,100,510,26.799999,49.599998,980.469971
16/06/2023,20:20:40.251,-923,329,121,-217,-1258,-612,654,117,514,26.799999,49.599998,980.469971
16/06/2023,20:20:40.261,-998,267,-170,-475,-1476,-590,660,100,486,26.799999,49.599998,980.469971
16/06/2023,20:20:40.270,-955,-9,-423,-582,-1398,-568,646,114,466,26.799999,49.599998,980.469971
16/06/2023,20:20:40.280,-964,-167,-519,-506,-1293,-457,661,124,486,26.799999,49.599998,980.469971
16/06/2023,20:20:40.289,-1081,-126,-586,-153,-1131,-312,670,112,459,26.799999,49.599998,980.469971
16/06/2023,20:20:40.298,-1151,-72,-615,425,-998,-118,694,129,459,26.799999,49.599998,980.469971
16/06/2023,20:20:40.307,-1194,65,-477,640,-1115,-88,694,129,459,26.799999,49.599998,980.469971
16/06/2023,20:20:40.316,-1192,108,-395,110,-1138,-68,679,121,456,26.799999,49.599998,980.469971
16/06/2023,20:20:40.326,-1183,148,-349,-497,-1015,76,693,130,438,26.799999,49.599998,980.469971
16/06/2023,20:20:40.336,-1142,270,-254,-359,-966,194,696,127,418,26.799999,49.599998,980.469971
16/06/2023,20:20:40.345,-1083,312,-243,-537,-748,473,690,106,445,26.799999,49.599998,980.469971
16/06/2023,20:20:40.355,-1039,186,-223,-1135,-834,509,699,111,430,26.799999,49.599998,980.469971
16/06/2023,20:20:40.364,-935,135,-236,-1258,-1024,415,708,103,426,26.799999,49.599998,980.469971
16/06/2023,20:20:40.373,-879,129,-227,-956,-1146,282,705,90,417,26.799999,49.599998,980.469971
16/06/2023,20:20:40.383,-858,-52,-213,-898,-1206,209,699,85,405,26.799999,49.599998,980.469971
16/06/2023,20:20:40.392,-760,-79,-298,-814,-1253,245,714,81,396,26.799999,49.599998,980.469971
16/06/2023,20:20:40.429,-838,30,-189,-757,-857,339,733,75,378,26.799999,49.599998,980.469971
16/06/2023,20:20:40.439,-846,71,-167,-852,-797,324,730,54,385,26.799999,49.599998,980.469971
16/06/2023,20:20:40.448,-814,118,-179,-967,-863,235,727,69,360,26.799999,49.599998,980.469971
16/06/2023,20:20:40.458,-796,143,-163,-1024,-889,151,736,49,351,26.799999,49.599998,980.469971
16/06/2023,20:20:40.467,-753,121,-134,-1042,-894,77,742,46,343,26.799999,49.599998,980.469971
16/06/2023,20:20:40.480,-703,131,-149,-1052,-848,101,738,46,334,26.799999,49.599998,980.469971
16/06/2023,20:20:40.486,-663,162,-159,-995,-772,62,729,48,351,26.799999,49.599998,980.469971
16/06/2023,20:20:40.495,-663,162,-159,-912,-627,63,739,49,313,26.799999,49.599998,980.469971
16/06/2023,20:20:40.504,-670,177,-87,-816,-552,39,739,49,313,26.799999,49.599998,980.469971
16/06/2023,20:20:40.513,-770,150,41,-772,-712,-81,747,37,318,26.799999,49.599998,980.469971
16/06/2023,20:20:40.523,-838,47,75,-692,-832,-4,745,34,306,26.799999,49.599998,980.469971
16/06/2023,20:20:40.533,-804,-24,49,-544,-715,90,759,48,321,26.799999,49.599998,980.469971
16/06/2023,20:20:40.542,-727,-14,95,-407,-545,94,757,24,301,26.799999,49.599998,980.469971
16/06/2023,20:20:40.551,-658,25,152,-308,-406,104,745,36,288,26.799999,49.599998,980.469971
16/06/2023,20:20:40.561,-627,48,197,-243,-278,145,771,27,289,26.799999,49.599998,980.469971
16/06/2023,20:20:40.570,-632,40,229,-278,-142,172,735,19,285,26.799999,49.599998,980.469971
16/06/2023,20:20:40.583,-664,43,273,-370,-42,196,753,13,307,26.799999,49.599998,980.469971
16/06/2023,20:20:40.589,-742,22,309,-544,-30,191,754,16,298,26.799999,49.599998,980.469971
16/06/2023,20:20:40.597,-790,34,291,-627,-5,197,754,16,298,26.799999,49.599998,980.469971
16/06/2023,20:20:40.607,-822,95,284,-622,-32,220,744,19,295,26.799999,49.599998,980.469971
16/06/2023,20:20:40.617,-901,127,301,-574,-93,228,766,4,297,26.799999,49.599998,980.469971
16/06/2023,20:20:40.626,-984,161,325,-477,-134,226,751,1,286,26.799999,49.599998,980.469971
16/06/2023,20:20:40.636,-1078,203,372,-354,-165,200,769,16,276,26.799999,49.599998,980.469971
16/06/2023,20:20:40.645,-1196,245,454,-247,-226,126,750,25,276,26.799999,49.599998,980.469971
16/06/2023,20:20:40.654,-1288,306,506,-184,-311,36,762,12,286,26.799999,49.599998,980.469971
16/06/2023,20:20:40.664,-1361,379,491,-185,-325,-64,754,6,279,26.799999,49.599998,980.469971
16/06/2023,20:20:40.673,-1372,475,456,-241,-308,-167,750,1,286,26.799999,49.599998,980.469971
16/06/2023,20:20:40.685,-1200,500,417,-384,-316,-199,750,1,286,26.799999,49.599998,980.469971
16/06/2023,20:20:40.692,-915,387,376,-606,-273,-123,753,6,291,26.799999,49.599998,980.469971
16/06/2023,20:20:40.701,-686,286,319,-804,-159,1,747,21,270,26.799999,49.599998,980.469971
16/06/2023,20:20:40.711,-572,259,256,-829,28,119,739,18,273,26.799999,49.599998,980.469971
16/06/2023,20:20:40.720,-553,228,192,-618,221,188,763,0,270,26.799999,49.599998,980.469971
16/06/2023,20:20:40.729,-629,143,93,-256,346,213,754,-1,264,26.799999,49.599998,980.469971
16/06/2023,20:20:40.739,-852,142,-30,168,361,192,739,-9,264,26.799999,49.599998,980.469971
16/06/2023,20:20:40.748,-1233,255,-173,168,361,192,736,15,274,26.799999,49.599998,980.469971
16/06/2023,20:20:40.757,-1698,317,-77,557,562,110,747,-3,289,26.799999,49.599998,980.469971
16/06/2023,20:20:40.766,-1806,257,118,978,527,162,747,-3,289,26.799999,49.599998,980.469971
16/06/2023,20:20:40.776,-1493,184,206,978,516,162,751,1,280,26.799999,49.599998,980.469971
16/06/2023,20:20:40.789,-1228,261,275,901,586,245,744,-12,288,26.799999,49.599998,980.469971
16/06/2023,20:20:40.795,-1116,427,144,833,648,207,744,-10,291,26.799999,49.599998,980.469971
16/06/2023,20:20:40.804,-1087,560,-22,1010,660,161,744,6,310,26.799999,49.599998,980.469971
16/06/2023,20:20:40.814,-960,519,-55,1033,698,139,748,1,303,26.799999,49.599998,980.469971
16/06/2023,20:20:40.823,-702,256,-128,742,701,21,745,-7,322,26.799999,49.599998,980.469971
16/06/2023,20:20:40.832,-513,-73,-357,679,618,-102,750,0,327,26.799999,49.599998,980.469971
16/06/2023,20:20:40.851,-435,-278,-611,1284,588,-90,729,13,342,26.799999,49.599998,980.469971
16/06/2023,20:20:40.860,-478,-327,-613,1557,642,-25,729,13,342,26.799999,49.599998,980.469971
16/06/2023,20:20:40.869,-738,-321,-344,1543,661,55,735,12,330,26.799999,49.599998,980.469971
16/06/2023,20:20:40.879,-987,-310,-96,1330,819,11,745,25,330,26.799999,49.599998,980.469971
16/06/2023,20:20:40.889,-1103,-321,-63,1125,970,-80,741,10,352,26.799999,49.599998,980.469971
16/06/2023,20:20:40.901,-1146,-328,-138,1062,999,-204,729,12,369,26.799999,49.599998,980.469971
16/06/2023,20:20:40.907,-1057,-210,-196,1138,1067,-230,711,24,385,26.799999,49.599998,980.469971
16/06/2023,20:20:40.917,-942,1,-149,1206,1185,-179,711,28,388,26.799999,49.599998,980.469971
16/06/2023,20:20:40.926,-862,183,-46,1081,1193,-104,717,40,396,26.799999,49.599998,980.469971
16/06/2023,20:20:40.935,-821,260,-39,866,1120,-101,703,34,400,26.799999,49.599998,980.469971
16/06/2023,20:20:40.945,-844,214,-88,748,1054,-145,711,63,415,26.799999,49.599998,980.469971
16/06/2023,20:20:40.954,-873,86,-144,773,1084,-201,711,63,415,26.799999,49.599998,980.469971
16/06/2023,20:20:40.963,-928,-52,-183,863,1146,-206,696,45,406,26.799999,49.599998,980.469971
16/06/2023,20:20:40.973,-994,-139,-208,1040,1170,-241,669,58,421,26.799999,49.599998,980.469971
16/06/2023,20:20:40.982,-1017,-243,-185,1179,1255,-263,670,52,429,26.799999,49.599998,980.469971
16/06/2023,20:20:40.992,-1033,-358,-190,1007,1245,-145,687,66,436,26.799999,49.599998,980.469971
16/06/2023,20:20:41.001,-1050,-399,-193,559,1156,-13,667,64,462,26.799999,49.599998,980.469971
16/06/2023,20:20:41.010,-1049,-354,-135,76,868,67,670,66,454,26.799999,49.599998,980.469971
16/06/2023,20:20:41.020,-1005,-148,-104,-207,630,146,675,57,471,26.799999,49.599998,980.469971
16/06/2023,20:20:41.029,-947,116,-76,-187,554,139,655,63,469,26.799999,49.599998,980.469971
16/06/2023,20:20:41.038,-895,251,-61,-30,571,137,655,54,475,26.799999,49.599998,980.469971
16/06/2023,20:20:41.047,-888,300,-63,167,616,161,655,54,475,26.799999,49.599998,980.469971
16/06/2023,20:20:41.057,-958,264,-27,270,560,115,648,67,492,26.799999,49.599998,980.469971
16/06/2023,20:20:41.067,-1011,133,-9,391,442,127,648,67,492,26.799999,49.599998,980.469971
16/06/2023,20:20:41.076,-988,59,-70,457,462,162,669,66,481,26.799999,49.599998,980.469971
16/06/2023,20:20:41.085,-949,85,-102,463,446,158,664,67,487,26.799999,49.599998,980.469971
16/06/2023,20:20:41.095,-923,98,-90,515,402,131,630,84,492,26.799999,49.599998,980.469971
16/06/2023,20:20:41.104,-910,84,-116,635,417,128,643,57,498,26.799999,49.599998,980.469971
16/06/2023,20:20:41.113,-929,80,-148,635,417,128,648,63,489,26.799999,49.599998,980.469971
16/06/2023,20:20:41.123,-937,73,-168,767,430,134,631,69,499,26.799999,49.599998,980.469971
16/06/2023,20:20:41.132,-904,63,-195,850,387,154,631,69,499,26.799999,49.599998,980.469971
16/06/2023,20:20:41.141,-863,58,-193,784,368,165,636,61,499,26.799999,49.599998,980.330017
16/06/2023,20:20:41.151,-859,76,-180,564,407,117,645,70,489,26.799999,49.599998,980.330017
16/06/2023,20:20:41.160,-890,96,-171,308,381,72,630,85,495,26.799999,49.599998,980.330017
16/06/2023,20:20:41.170,-902,69,-167,206,394,45,616,73,508,26.799999,49.599998,980.330017
16/06/2023,20:20:41.179,-894,44,-219,285,421,24,628,85,504,26.799999,49.599998,980.330017
16/06/2023,20:20:41.188,-894,44,-219,416,485,49,627,87,496,26.799999,49.599998,980.330017
16/06/2023,20:20:41.198,-934,47,-270,524,529,74,621,48,499,26.799999,49.599998,980.330017
16/06/2023,20:20:41.207,-1092,85,-185,584,575,76,610,88,504,26.799999,49.599998,980.330017
16/06/2023,20:20:41.216,-1162,135,-82,569,557,55,610,88,504,26.799999,49.599998,980.330017
16/06/2023,20:20:41.225,-1152,118,-96,585,593,61,628,99,504,26.799999,49.599998,980.330017
16/06/2023,20:20:41.235,-1203,78,-91,620,564,56,609,91,523,26.799999,49.599998,980.330017
16/06/2023,20:20:41.245,-1234,115,-61,459,345,31,616,93,516,26.799999,49.599998,980.330017
16/06/2023,20:20:41.254,-1242,171,-67,140,133,10,612,99,531,26.799999,49.599998,980.330017
16/06/2023,20:20:41.273,-1204,95,23,-518,-262,-4,607,100,516,26.799999,49.599998,980.330017
16/06/2023,20:20:41.282,-1235,0,69,-529,-316,-18,631,84,517,26.799999,49.599998,980.330017
16/06/2023,20:20:41.291,-1279,-89,104,-342,-266,-16,625,85,514,26.799999,49.599998,980.330017
16/06/2023,20:20:41.301,-1275,-146,134,-132,-222,19,595,88,504,26.799999,49.599998,980.330017
16/06/2023,20:20:41.310,-1277,-173,205,-160,-147,-9,595,88,504,26.799999,49.599998,980.330017
16/06/2023,20:20:41.320,-1465,-205,137,-171,-166,-107,604,66,522,26.799999,49.599998,980.330017
16/06/2023,20:20:41.329,-1684,-275,56,0,-266,-92,625,91,513,26.799999,49.599998,980.330017
16/06/2023,20:20:41.338,-1668,-334,228,-89,-467,-23,622,97,505,26.799999,49.599998,980.330017
16/06/2023,20:20:41.348,-1527,-167,317,-170,-697,3,616,79,507,26.799999,49.599998,980.330017
16/06/2023,20:20:41.357,-1419,229,283,-251,-945,-158,618,96,496,26.799999,49.599998,980.330017
16/06/2023,20:20:41.366,-1370,394,163,-718,-1177,-289,631,69,487,26.799999,49.599998,980.330017
16/06/2023,20:20:41.376,-1331,348,-3,-1103,-1355,-428,648,81,498,26.799999,49.599998,980.330017
16/06/2023,20:20:41.385,-1242,162,-172,-1004,-1431,-550,642,81,490,26.799999,49.599998,980.330017
16/06/2023,20:20:41.394,-1077,-126,-359,-838,-1306,-530,642,81,490,26.799999,49.599998,980.330017
16/06/2023,20:20:41.403,-914,-135,-430,-678,-1249,-445,657,69,474,26.799999,49.599998,980.330017
16/06/2023,20:20:41.413,-933,35,-516,-277,-1264,-360,651,64,466,26.799999,49.599998,980.330017
16/06/2023,20:20:41.423,-1009,105,-586,399,-1096,-266,675,64,487,26.799999,49.599998,980.330017
16/06/2023,20:20:41.432,-1029,19,-558,898,-899,-154,660,72,445,26.799999,49.599998,980.330017
16/06/2023,20:20:41.441,-1090,-5,-456,1063,-854,-65,676,78,442,26.799999,49.599998,980.330017
16/06/2023,20:20:41.451,-1101,57,-293,997,-959,-117,664,81,435,26.799999,49.599998,980.330017
16/06/2023,20:20:41.460,-1139,88,-240,997,-959,-117,658,84,448,26.799999,49.599998,980.330017
16/06/2023,20:20:41.469,-1249,125,-355,610,-925,-45,678,73,435,26.799999,49.599998,980.330017
16/06/2023,20:20:41.479,-1279,113,-337,-317,-738,-47,675,84,438,26.799999,49.599998,980.330017
16/06/2023,20:20:41.488,-1157,128,-130,-1536,-1013,169,675,84,438,26.799999,49.599998,980.330017
16/06/2023,20:20:41.497,-959,173,-52,-2009,-1501,276,685,66,418,26.799999,49.599998,980.330017
16/06/2023,20:20:41.507,-894,163,-115,-1842,-1442,311,681,69,415,26.799999,49.599998,980.330017
16/06/2023,20:20:41.516,-907,128,-149,-1461,-1275,343,699,69,409,26.799999,49.599998,980.330017
16/06/2023,20:20:41.526,-909,82,-190,-1054,-1239,267,699,54,411,26.799999,49.599998,980.330017
16/06/2023,20:20:41.535,-909,82,-190,-961,-1262,243,700,33,373,26.799999,49.599998,980.330017
16/06/2023,20:20:41.544,-910,57,-213,-1108,-1158,283,711,39,375,26.799999,49.599998,980.330017
16/06/2023,20:20:41.554,-876,-27,-222,-1387,-1109,340,709,40,346,26.799999,49.599998,980.330017
16/06/2023,20:20:41.563,-784,-138,-213,-1388,-1222,218,696,27,352,26.799999,49.599998,980.330017
16/06/2023,20:20:41.572,-719,-170,-170,-1350,-1278,140,720,27,361,26.799999,49.599998,980.330017
16/06/2023,20:20:41.581,-734,-111,-178,-1329,-1231,132,720,27,361,26.799999,49.599998,980.330017
16/06/2023,20:20:41.591,-741,-50,-183,-1208,-1090,135,732,33,336,26.799999,49.599998,980.330017
16/06/2023,20:20:41.601,-743,-39,-176,-1153,-977,84,715,15,330,26.799999,49.599998,980.330017
16/06/2023,20:20:41.610,-724,-15,-196,-1155,-906,20,730,7,306,26.799999,49.599998,980.330017
16/06/2023,20:20:41.619,-682,50,-221,-1175,-780,-17,726,4,318,26.799999,49.599998,980.330017
16/06/2023,20:20:41.629,-625,108,-214,-1090,-628,-15,714,12,303,26.799999,49.599998,980.330017
16/06/2023,20:20:41.638,-583,153,-176,-1023,-462,-27,723,18,295,26.799999,49.599998,980.330017
16/06/2023,20:20:41.647,-628,207,-81,-999,-444,-177,727,1,283,26.799999,49.599998,980.330017
16/06/2023,20:20:41.657,-665,201,1,-967,-499,-210,732,22,304,26.799999,49.599998,980.330017
16/06/2023,20:20:41.666,-620,162,13,-799,-463,-82,733,22,289,26.799999,49.599998,980.330017
16/06/2023,20:20:41.684,-591,106,71,-521,-311,89,724,15,282,26.799999,49.599998,980.330017
16/06/2023,20:20:41.694,-580,74,98,-431,-260,96,726,15,282,26.799999,49.599998,980.330017
16/06/2023,20:20:41.704,-575,48,109,-396,-189,72,747,9,283,26.799999,49.599998,980.330017
16/06/2023,20:20:41.713,-635,29,123,-348,-109,118,736,12,271,26.799999,49.599998,980.330017
16/06/2023,20:20:41.722,-669,25,142,-300,7,161,751,22,277,26.799999,49.599998,980.330017
16/06/2023,20:20:41.732,-633,59,158,-226,85,159,742,9,267,26.799999,49.599998,980.330017
16/06/2023,20:20:41.741,-664,127,181,-139,138,146,733,10,282,26.799999,49.599998,980.330017
16/06/2023,20:20:41.750,-747,169,205,-87,233,171,723,12,288,26.799999,49.599998,980.330017
16/06/2023,20:20:41.760,-837,151,241,-102,319,177,723,3,288,26.799999,49.599998,980.330017
16/06/2023,20:20:41.769,-958,118,284,-231,306,180,723,3,288,26.799999,49.599998,980.330017
16/06/2023,20:20:41.778,-1052,155,311,-288,265,194,735,7,277,26.799999,49.599998,980.330017
16/06/2023,20:20:41.788,-1161,203,404,-325,169,186,732,1,285,26.799999,49.599998,980.330017
16/06/2023,20:20:41.797,-1323,215,568,-334,48,138,730,6,288,26.799999,49.599998,980.330017
16/06/2023,20:20:41.807,-1446,257,717,-334,48,138,738,-6,295,26.799999,49.599998,980.330017
16/06/2023,20:20:41.816,-1509,346,826,-298,-121,92,712,-16,301,26.799999,49.599998,980.330017
16/06/2023,20:20:41.825,-1506,403,812,-179,-266,21,720,-15,276,26.799999,49.599998,980.330017
16/06/2023,20:20:41.835,-1338,414,661,-73,-318,-29,717,-6,288,26.799999,49.599998,980.330017
16/06/2023,20:20:41.844,-1001,409,504,-21,-237,-58,736,0,277,26.799999,49.599998,980.330017
16/06/2023,20:20:41.853,-720,406,380,-104,-122,-30,736,0,277,26.799999,49.599998,980.330017
16/06/2023,20:20:41.863,-605,426,167,-277,-18,34,709,-10,270,26.799999,49.599998,980.330017
16/06/2023,20:20:41.872,-783,478,-1,-383,113,106,732,-21,267,26.799999,49.599998,980.330017
16/06/2023,20:20:41.882,-783,478,-1,-249,89,100,714,0,268,26.799999,49.599998,980.330017
16/06/2023,20:20:41.891,-1136,458,-233,82,185,-67,724,10,276,26.799999,49.599998,980.330017
16/06/2023,20:20:41.900,-1520,335,-398,662,469,-102,727,-13,280,26.799999,49.599998,980.330017
16/06/2023,20:20:41.910,-1742,183,-316,1350,420,7,711,-12,288,26.799999,49.599998,980.330017
16/06/2023,20:20:41.919,-1706,60,-39,1657,324,178,714,-6,282,26.799999,49.599998,980.330017
16/06/2023,20:20:41.928,-1535,81,410,1362,203,141,733,-15,300,26.799999,49.599998,980.330017
16/06/2023,20:20:41.938,-1296,228,371,1017,224,70,715,0,301,26.799999,49.599998,980.330017
16/06/2023,20:20:41.947,-967,256,-143,894,493,179,715,0,301,26.799999,49.599998,980.330017
16/06/2023,20:20:41.956,-549,175,-429,825,917,219,727,-7,297,26.799999,49.599998,980.330017
16/06/2023,20:20:41.966,-183,196,-480,920,946,8,720,-10,304,26.799999,49.599998,980.330017
16/06/2023,20:20:41.975,-15,80,-473,1326,788,-264,718,1,322,26.799999,49.599998,980.330017
16/06/2023,20:20:41.985,-349,-244,-430,1660,625,-157,711,6,312,26.799999,49.599998,980.330017
16/06/2023,20:20:41.994,-819,-498,-366,1370,712,2,705,0,339,26.799999,49.599998,980.330017
16/06/2023,20:20:42.003,-1045,-581,-185,1068,971,-27,711,-4,330,26.799999,49.599998,980.330017
16/06/2023,20:20:42.013,-1159,-611,-78,1003,1225,-103,699,4,349,26.799999,49.599998,980.330017
16/06/2023,20:20:42.022,-1216,-612,-146,970,1352,-241,709,22,360,26.799999,49.599998,980.330017
16/06/2023,20:20:42.032,-1132,-409,-194,1185,1440,-352,696,16,358,26.799999,49.599998,980.330017
16/06/2023,20:20:42.040,-936,-119,-104,1349,1571,-366,696,16,358,26.799999,49.599998,980.330017
16/06/2023,20:20:42.050,-822,55,9,1220,1580,-287,694,15,394,26.799999,49.599998,980.330017
16/06/2023,20:20:42.060,-831,167,0,905,1386,-275,705,33,382,26.799999,49.599998,980.330017
16/06/2023,20:20:42.068,-908,212,-77,576,1233,-285,690,31,393,26.799999,49.599998,980.330017
16/06/2023,20:20:42.078,-938,170,-138,395,1261,-170,682,25,400,26.799999,49.599998,980.330017
16/06/2023,20:20:42.088,-972,59,-142,305,1188,-58,670,40,414,26.799999,49.599998,980.330017
16/06/2023,20:20:42.106,-1012,-94,-92,-297,642,-41,649,45,426,26.799999,49.599998,980.330017
16/06/2023,20:20:42.116,-965,-28,-47,-336,566,28,663,30,447,26.799999,49.599998,980.330017
16/06/2023,20:20:42.125,-902,-27,-58,-79,606,110,652,42,459,26.799999,49.599998,980.330017
16/06/2023,20:20:42.134,-880,-14,-105,182,724,160,652,42,459,26.799999,49.599998,980.330017
16/06/2023,20:20:42.143,-900,28,-95,247,710,151,664,30,441,26.799999,49.599998,980.330017
16/06/2023,20:20:42.153,-918,51,-78,247,710,151,654,31,451,26.799999,49.599998,980.330017
16/06/2023,20:20:42.163,-936,51,-68,120,662,124,655,37,451,26.799999,49.599998,980.330017
16/06/2023,20:20:42.172,-920,13,-82,-78,565,87,648,31,447,26.799999,49.599998,980.330017
16/06/2023,20:20:42.181,-896,-13,-78,-162,508,94,639,30,444,26.600000,49.500000,980.309998
16/06/2023,20:20:42.191,-896,29,-47,-48,529,158,652,43,463,26.600000,49.500000,980.309998
16/06/2023,20:20:42.200,-901,85,-29,159,598,197,639,27,456,26.600000,49.500000,980.309998
16/06/2023,20:20:42.209,-901,85,-29,320,618,192,639,27,456,26.600000,49.500000,980.309998
16/06/2023,20:20:42.218,-912,100,-32,411,625,173,643,28,460,26.600000,49.500000,980.309998
16/06/2023,20:20:42.228,-916,124,-75,472,616,175,628,30,484,26.600000,49.500000,980.309998
16/06/2023,20:20:42.238,-911,143,-114,531,554,144,627,28,484,26.600000,49.500000,980.309998
16/06/2023,20:20:42.247,-873,137,-143,527,544,127,615,33,489,26.600000,49.500000,980.309998
16/06/2023,20:20:42.256,-829,123,-158,498,536,111,601,57,507,26.600000,49.500000,980.309998
16/06/2023,20:20:42.266,-825,110,-150,445,531,101,607,42,490,26.600000,49.500000,980.309998
16/06/2023,20:20:42.275,-831,99,-174,412,534,83,615,48,484,26.600000,49.500000,980.309998
16/06/2023,20:20:42.285,-887,94,-207,440,584,79,624,49,498,26.600000,49.500000,980.309998
16/06/2023,20:20:42.294,-904,54,-281,491,533,47,612,39,489,26.600000,49.500000,980.309998
16/06/2023,20:20:42.303,-942,28,-316,498,649,64,612,39,489,26.600000,49.500000,980.309998
16/06/2023,20:20:42.313,-1049,34,-286,433,668,54,597,52,498,26.600000,49.500000,980.309998
16/06/2023,20:20:42.322,-1137,41,-259,318,535,-38,609,46,498,26.600000,49.500000,980.309998
16/06/2023,20:20:42.331,-1141,87,-226,154,535,-31,592,66,502,26.600000,49.500000,980.309998
16/06/2023,20:20:42.341,-1142,108,-153,43,515,-35,595,49,510,26.600000,49.500000,980.309998
16/06/2023,20:20:42.350,-1209,95,-106,11,390,-51,601,58,525,26.600000,49.500000,980.309998
16/06/2023,20:20:42.362,-1214,66,-92,108,280,-42,589,48,514,26.600000,49.500000,980.309998
16/06/2023,20:20:42.369,-1219,-14,-57,204,180,-21,592,57,514,26.600000,49.500000,980.309998
16/06/2023,20:20:42.378,-1264,-112,-83,287,77,27,600,66,504,26.600000,49.500000,980.309998
16/06/2023,20:20:42.387,-1319,-156,-81,267,-50,88,600,66,504,26.600000,49.500000,980.309998
16/06/2023,20:20:42.396,-1362,-149,-17,101,-163,135,594,60,516,26.600000,49.500000,980.309998
16/06/2023,20:20:42.406,-1347,-95,87,-119,-209,166,588,64,517,26.600000,49.500000,980.309998
16/06/2023,20:20:42.416,-1267,-5,224,-277,-184,153,580,60,516,26.600000,49.500000,980.309998
16/06/2023,20:20:42.425,-1197,59,337,-355,-199,84,585,51,514,26.600000,49.500000,980.309998
16/06/2023,20:20:42.434,-1255,59,382,-445,-264,-33,591,70,501,26.600000,49.500000,980.309998
16/06/2023,20:20:42.444,-1467,-57,153,-190,-238,-118,588,46,510,26.600000,49.500000,980.309998
16/06/2023,20:20:42.453,-1643,-269,-32,193,-289,-91,591,58,507,26.600000,49.500000,980.309998
16/06/2023,20:20:42.466,-1640,-371,108,97,-512,14,594,54,492,26.600000,49.500000,980.309998
16/06/2023,20:20:42.472,-1522,-210,183,-191,-812,-2,579,63,496,26.600000,49.500000,980.309998
16/06/2023,20:20:42.481,-1359,95,112,-523,-994,-161,579,63,496,26.600000,49.500000,980.309998
16/06/2023,20:20:42.491,-1240,264,32,-523,-994,-161,594,51,493,26.600000,49.500000,980.309998
16/06/2023,20:20:42.500,-1180,277,-3,-981,-1141,-237,615,36,484,26.600000,49.500000,980.309998
16/06/2023,20:20:42.509,-1143,24,-127,-1101,-1348,-357,598,45,483,26.600000,49.500000,980.309998
16/06/2023,20:20:42.528,-989,-295,-610,-691,-1371,-422,628,51,477,26.600000,49.500000,980.309998
16/06/2023,20:20:42.537,-994,-2,-766,-499,-1160,-349,630,28,457,26.600000,49.500000,980.309998
16/06/2023,20:20:42.547,-1058,197,-813,-261,-1127,-278,640,45,453,26.600000,49.500000,980.309998
16/06/2023,20:20:42.556,-1085,204,-623,170,-931,-172,636,63,456,26.600000,49.500000,980.309998
16/06/2023,20:20:42.565,-1085,204,-623,649,-826,-87,636,63,456,26.600000,49.500000,980.309998
16/06/2023,20:20:42.575,-1105,201,-339,918,-863,-49,636,48,457,26.600000,49.500000,980.309998
16/06/2023,20:20:42.584,-1155,275,-187,1137,-970,-49,657,66,438,26.600000,49.500000,980.309998
16/06/2023,20:20:42.594,-1164,388,-98,1300,-905,21,660,64,432,26.600000,49.500000,980.309998
16/06/2023,20:20:42.603,-1111,459,-110,1041,-780,85,661,57,432,26.600000,49.500000,980.309998
16/06/2023,20:20:42.612,-1102,353,-332,-392,-459,202,643,54,435,26.600000,49.500000,980.309998
16/06/2023,20:20:42.625,-1138,195,-358,-1962,-1050,508,654,69,418,26.600000,49.500000,980.309998
16/06/2023,20:20:42.631,-1050,58,-163,-2332,-1524,510,652,51,411,26.600000,49.500000,980.309998
16/06/2023,20:20:42.641,-902,-48,-157,-1948,-1416,459,675,18,387,26.600000,49.500000,980.309998
16/06/2023,20:20:42.649,-863,-113,-203,-1439,-1262,423,675,18,387,26.600000,49.500000,980.309998
16/06/2023,20:20:42.659,-858,-156,-227,-1172,-1313,318,675,7,384,26.600000,49.500000,980.309998
16/06/2023,20:20:42.669,-875,-126,-271,-1147,-1359,235,693,10,381,26.600000,49.500000,980.309998
16/06/2023,20:20:42.678,-868,-82,-253,-1156,-1268,266,673,7,378,26.600000,49.500000,980.309998
16/06/2023,20:20:42.687,-841,-70,-210,-1169,-1159,291,670,1,358,26.600000,49.500000,980.309998
16/06/2023,20:20:42.697,-818,-69,-167,-1089,-1176,162,696,-4,355,26.600000,49.500000,980.309998
16/06/2023,20:20:42.706,-823,0,-185,-1021,-1135,71,700,7,346,26.600000,49.500000,980.309998
16/06/2023,20:20:42.715,-767,13,-197,-973,-998,46,687,1,345,26.600000,49.500000,980.309998
16/06/2023,20:20:42.725,-669,-14,-137,-912,-894,-7,696,3,313,26.600000,49.500000,980.309998
16/06/2023,20:20:42.734,-647,34,-131,-951,-788,-62,690,0,306,26.600000,49.500000,980.309998
16/06/2023,20:20:42.743,-626,79,-155,-1034,-641,-110,690,0,306,26.600000,49.500000,980.309998
16/06/2023,20:20:42.752,-635,82,-160,-1080,-472,-107,685,-10,321,26.600000,49.500000,980.309998
16/06/2023,20:20:42.762,-647,118,-135,-1031,-324,-44,702,-18,310,26.600000,49.500000,980.309998
16/06/2023,20:20:42.775,-658,220,-88,-913,-251,25,685,-25,303,26.600000,49.500000,980.309998
16/06/2023,20:20:42.781,-706,256,0,-811,-324,-12,691,3,288,26.600000,49.500000,980.309998
16/06/2023,20:20:42.790,-712,170,27,-751,-402,-53,712,-19,318,26.600000,49.500000,980.309998
16/06/2023,20:20:42.800,-685,59,1,-674,-383,-54,696,-25,318,26.600000,49.500000,980.309998
16/06/2023,20:20:42.809,-693,33,24,-538,-349,20,715,-3,292,26.600000,49.500000,980.309998
16/06/2023,20:20:42.819,-691,31,62,-440,-321,46,705,-27,294,26.600000,49.500000,980.309998
16/06/2023,20:20:42.828,-669,-4,80,-440,-321,46,697,-31,312,26.600000,49.500000,980.309998
16/06/2023,20:20:42.837,-655,-37,100,-263,-184,130,697,-31,312,26.600000,49.500000,980.309998
16/06/2023,20:20:42.846,-599,-7,124,-263,-184,130,688,-12,277,26.600000,49.500000,980.309998
16/06/2023,20:20:42.856,-537,102,132,-163,-65,146,705,-12,276,26.600000,49.500000,980.309998
16/06/2023,20:20:42.865,-620,100,227,-77,74,152,687,-18,282,26.600000,49.500000,980.309998
16/06/2023,20:20:42.875,-788,-32,324,-93,135,184,711,-15,286,26.600000,49.500000,980.309998
16/06/2023,20:20:42.884,-880,-72,323,-288,70,192,693,-10,292,26.600000,49.500000,980.309998
16/06/2023,20:20:42.893,-948,-6,331,-457,18,186,697,-21,280,26.600000,49.500000,980.309998
16/06/2023,20:20:42.903,-1064,65,366,-556,-10,223,688,-24,273,26.600000,49.500000,980.309998
16/06/2023,20:20:42.912,-1190,69,442,-532,-3,241,688,-36,277,26.600000,49.500000,980.309998
16/06/2023,20:20:42.922,-1190,69,442,-447,-13,210,693,-31,294,26.600000,49.500000,980.309998
16/06/2023,20:20:42.940,-1416,221,681,-66,-204,109,676,-25,294,26.600000,49.500000,980.309998
16/06/2023,20:20:42.950,-1513,275,805,109,-328,20,700,-42,279,26.600000,49.500000,980.309998
16/06/2023,20:20:42.959,-1482,353,809,172,-326,-87,693,-36,277,26.600000,49.500000,980.309998
16/06/2023,20:20:42.968,-1223,441,696,54,-225,-159,690,-28,282,26.600000,49.500000,980.309998
16/06/2023,20:20:42.978,-864,443,513,-245,-117,-129,693,-28,274,26.600000,49.500000,980.309998
16/06/2023,20:20:42.991,-615,449,298,-579,-17,-48,685,-52,271,26.600000,49.500000,980.309998
16/06/2023,20:20:42.997,-584,511,62,-751,79,29,682,-34,279,26.600000,49.500000,980.309998
16/06/2023,20:20:43.006,-925,601,-126,-586,36,-20,694,-34,271,26.600000,49.500000,980.309998
16/06/2023,20:20:43.015,-1413,569,-326,-103,330,-162,694,-34,271,26.600000,49.500000,980.309998
16/06/2023,20:20:43.024,-1787,371,-401,655,541,-126,703,-40,268,26.600000,49.500000,980.309998
16/06/2023,20:20:43.034,-1917,176,-263,1329,469,-14,687,-37,274,26.600000,49.500000,980.309998
16/06/2023,20:20:43.043,-1651,73,22,1406,462,63,676,-30,295,26.600000,49.500000,980.309998
16/06/2023,20:20:43.053,-1298,205,255,1285,438,60,676,-30,295,26.600000,49.500000,980.309998
16/06/2023,20:20:43.062,-1011,378,105,1170,346,49,682,-24,307,26.600000,49.500000,980.309998
16/06/2023,20:20:43.071,-654,312,-212,871,529,147,676,-30,304,26.600000,49.500000,980.309998
16/06/2023,20:20:43.081,-280,107,-392,727,832,214,667,-45,300,26.600000,49.500000,980.309998
16/06/2023,20:20:43.090,-90,-148,-447,1279,976,285,670,-49,315,26.600000,49.500000,980.309998
16/06/2023,20:20:43.100,-275,-358,-493,2080,941,216,670,-30,336,26.600000,49.500000,980.309998
16/06/2023,20:20:43.108,-676,-481,-596,2246,1047,149,670,-30,336,26.600000,49.500000,980.309998
16/06/2023,20:20:43.118,-1001,-517,-480,1858,1235,69,661,-31,342,26.600000,49.500000,980.309998
16/06/2023,20:20:43.128,-1143,-566,-184,1334,1352,-48,663,-25,339,26.600000,49.500000,980.309998
16/06/2023,20:20:43.137,-1185,-588,-117,1183,1330,-220,655,-33,355,26.600000,49.500000,980.309998
16/06/2023,20:20:43.146,-1180,-353,-127,1326,1407,-348,646,-18,370,26.600000,49.500000,980.309998
16/06/2023,20:20:43.156,-1045,-71,-9,1414,1463,-296,663,-13,372,26.600000,49.500000,980.309998
16/06/2023,20:20:43.165,-898,101,56,1306,1419,-91,643,-10,391,26.600000,49.500000,980.309998
16/06/2023,20:20:43.175,-836,203,0,1306,1419,-91,646,-22,381,26.600000,49.500000,980.309998
16/06/2023,20:20:43.184,-812,221,-49,1052,1390,2,634,3,420,26.600000,49.500000,980.309998
16/06/2023,20:20:43.193,-871,209,-102,912,1212,-5,634,3,420,26.600000,49.500000,980.309998
16/06/2023,20:20:43.202,-946,168,-102,842,1148,-45,640,0,418,26.600000,49.500000,980.309998
16/06/2023,20:20:43.212,-944,28,-56,937,1199,-37,631,10,435,26.600000,49.500000,980.309998
16/06/2023,20:20:43.221,-985,-140,-68,1042,1189,-11,625,4,433,26.600000,49.500000,980.309998
16/06/2023,20:20:43.231,-1046,-203,-54,882,993,-13,622,18,435,26.799999,49.299999,980.140015
16/06/2023,20:20:43.243,-1052,-178,-55,690,769,-69,607,12,445,26.799999,49.299999,980.140015
16/06/2023,20:20:43.250,-1029,-106,-66,402,632,-57,588,18,459,26.799999,49.299999,980.140015
16/06/2023,20:20:43.259,-941,-88,-98,422,495,-22,607,12,460,26.799999,49.299999,980.140015
16/06/2023,20:20:43.268,-941,-88,-98,611,634,38,580,33,441,26.799999,49.299999,980.140015
16/06/2023,20:20:43.277,-901,-78,-141,638,750,19,580,33,441,26.799999,49.299999,980.140015
16/06/2023,20:20:43.286,-950,-9,-98,498,628,-9,585,15,447,26.799999,49.299999,980.140015
16/06/2023,20:20:43.296,-943,18,-74,353,452,54,589,7,462,26.799999,49.299999,980.140015
16/06/2023,20:20:43.306,-877,-28,-105,349,409,84,577,13,466,26.799999,49.299999,980.140015
16/06/2023,20:20:43.315,-846,-83,-185,373,519,85,592,27,471,26.799999,49.299999,980.140015
16/06/2023,20:20:43.324,-862,-77,-239,447,599,133,570,18,469,26.799999,49.299999,980.140015
16/06/2023,20:20:43.334,-888,-32,-182,507,659,189,564,19,469,26.799999,49.299999,980.140015
16/06/2023,20:20:43.343,-921,17,-101,543,619,184,561,42,481,26.799999,49.299999,980.140015
16/06/2023,20:20:43.361,-889,100,-77,564,561,153,561,24,498,26.799999,49.299999,980.140015
16/06/2023,20:20:43.371,-904,146,-76,623,488,96,556,42,477,26.799999,49.299999,980.140015
16/06/2023,20:20:43.381,-884,137,-100,610,501,80,546,30,501,26.799999,49.299999,980.140015
16/06/2023,20:20:43.390,-860,114,-143,542,536,49,537,25,493,26.799999,49.299999,980.140015
16/06/2023,20:20:43.399,-868,96,-173,476,579,26,538,37,483,26.799999,49.299999,980.140015
16/06/2023,20:20:43.409,-882,59,-176,468,524,-4,546,19,519,26.799999,49.299999,980.140015
16/06/2023,20:20:43.418,-911,13,-197,506,581,-9,561,30,486,26.799999,49.299999,980.140015
16/06/2023,20:20:43.428,-962,-21,-209,584,590,13,538,52,486,26.799999,49.299999,980.140015
16/06/2023,20:20:43.437,-1065,-38,-186,659,451,-49,519,57,498,26.799999,49.299999,980.140015
16/06/2023,20:20:43.446,-1152,12,-176,596,463,5,525,51,517,26.799999,49.299999,980.140015
16/06/2023,20:20:43.455,-1190,123,-111,492,539,24,525,51,517,26.799999,49.299999,980.140015
16/06/2023,20:20:43.465,-1157,152,-58,402,505,-10,525,52,505,26.799999,49.299999,980.140015
16/06/2023,20:20:43.474,-1172,76,-38,299,348,-28,510,49,498,26.799999,49.299999,980.140015
16/06/2023,20:20:43.484,-1261,-12,-8,117,139,-34,526,51,490,26.799999,49.299999,980.140015
16/06/2023,20:20:43.493,-1271,-100,-8,-50,-15,-8,513,64,513,26.799999,49.299999,980.140015
16/06/2023,20:20:43.502,-1271,-157,-2,-95,-106,37,501,46,499,26.799999,49.299999,980.140015
16/06/2023,20:20:43.512,-1285,-150,54,-42,-165,74,495,58,486,26.799999,49.299999,980.140015
16/06/2023,20:20:43.521,-1303,-75,169,-42,-165,74,498,49,490,26.799999,49.299999,980.140015
16/06/2023,20:20:43.531,-1291,44,293,-30,-221,85,499,42,499,26.799999,49.299999,980.140015
16/06/2023,20:20:43.539,-1242,103,399,-96,-254,66,499,42,499,26.799999,49.299999,980.140015
16/06/2023,20:20:43.549,-1298,91,414,-282,-368,17,490,45,504,26.799999,49.299999,980.140015
16/06/2023,20:20:43.559,-1522,-52,153,-548,-472,-123,498,28,505,26.799999,49.299999,980.140015
16/06/2023,20:20:43.577,-1697,-516,164,15,-652,-168,496,52,514,26.799999,49.299999,980.140015
16/06/2023,20:20:43.587,-1628,-347,288,-129,-952,-165,498,24,484,26.799999,49.299999,980.140015
16/06/2023,20:20:43.596,-1514,185,147,-601,-1151,-219,487,33,504,26.799999,49.299999,980.140015
16/06/2023,20:20:43.606,-1514,390,-1,-803,-1371,-274,507,28,480,26.799999,49.299999,980.140015
16/06/2023,20:20:43.615,-1380,390,-1,-849,-1586,-414,519,1,486,26.799999,49.299999,980.140015
16/06/2023,20:20:43.624,-1148,113,-331,-902,-1525,-432,522,15,496,26.799999,49.299999,980.140015
16/06/2023,20:20:43.633,-972,-48,-504,-916,-1495,-445,522,15,496,26.799999,49.299999,980.140015
16/06/2023,20:20:43.642,-955,21,-508,-821,-1349,-387,534,-12,478,26.799999,49.299999,980.140015
16/06/2023,20:20:43.652,-1034,142,-547,-480,-1325,-368,535,-12,475,26.799999,49.299999,980.140015
16/06/2023,20:20:43.662,-1124,149,-560,133,-1162,-310,534,-19,460,26.799999,49.299999,980.140015
16/06/2023,20:20:43.671,-1183,123,-477,778,-985,-242,537,-24,463,26.799999,49.299999,980.140015
16/06/2023,20:20:43.680,-1195,175,-339,1242,-897,-186,532,-12,460,26.799999,49.299999,980.140015
16/06/2023,20:20:43.690,-1218,279,-170,1405,-940,-192,544,-7,456,26.799999,49.299999,980.140015
16/06/2023,20:20:43.699,-1279,380,-66,1040,-1042,-150,558,-31,460,26.799999,49.299999,980.140015
16/06/2023,20:20:43.709,-1262,352,-333,-257,-810,-87,541,-24,469,26.799999,49.299999,980.140015
16/06/2023,20:20:43.718,-1239,276,-493,-1934,-898,256,574,-49,448,26.799999,49.299999,980.140015
16/06/2023,20:20:43.727,-1093,251,-247,-2337,-1512,321,574,-49,448,26.799999,49.299999,980.140015
16/06/2023,20:20:43.736,-879,175,-134,-1827,-1579,258,567,-57,439,26.799999,49.299999,980.140015
16/06/2023,20:20:43.746,-875,-5,-197,-1457,-1361,280,585,-75,418,26.799999,49.299999,980.140015
16/06/2023,20:20:43.755,-893,-162,-236,-1300,-1387,256,580,-66,417,26.799999,49.299999,980.140015
16/06/2023,20:20:43.765,-814,-212,-260,-1287,-1434,138,577,-72,402,26.799999,49.299999,980.140015
16/06/2023,20:20:43.784,-759,-125,-194,-1306,-1197,157,603,-109,384,26.799999,49.299999,980.140015
16/06/2023,20:20:43.793,-644,-96,-155,-1141,-1145,22,598,-129,360,26.799999,49.299999,980.140015
16/06/2023,20:20:43.802,-630,-93,-132,-1012,-1086,-25,616,-136,336,26.799999,49.299999,980.140015
16/06/2023,20:20:43.812,-670,-75,-176,-924,-984,-7,609,-126,336,26.799999,49.299999,980.140015
16/06/2023,20:20:43.820,-671,-106,-207,-932,-852,24,609,-126,336,26.799999,49.299999,980.140015
16/06/2023,20:20:43.830,-632,-137,-224,-1025,-668,-34,601,-123,318,26.799999,49.299999,980.140015
16/06/2023,20:20:43.840,-611,-117,-259,-1102,-616,-35,601,-123,318,26.799999,49.299999,980.140015
16/06/2023,20:20:43.849,-533,-116,-266,-1140,-519,-22,613,-166,300,26.799999,49.299999,980.140015
16/06/2023,20:20:43.858,-508,-33,-237,-1147,-432,-40,624,-141,280,26.799999,49.299999,980.140015
16/06/2023,20:20:43.868,-557,98,-227,-1122,-396,-81,616,-145,267,26.799999,49.299999,980.140015
16/06/2023,20:20:43.877,-537,140,-180,-1030,-359,-133,621,-156,264,26.799999,49.299999,980.140015
16/06/2023,20:20:43.887,-517,143,-124,-1030,-359,-133,619,-130,255,26.799999,49.299999,980.140015
16/06/2023,20:20:43.896,-539,75,-78,-893,-373,-178,619,-154,241,26.799999,49.299999,980.140015
16/06/2023,20:20:43.905,-672,53,32,-650,-350,-50,619,-154,241,26.799999,49.299999,980.140015
16/06/2023,20:20:43.914,-731,39,56,-372,-330,65,624,-145,243,26.799999,49.299999,980.140015
16/06/2023,20:20:43.924,-752,22,47,-197,-316,199,634,-142,231,26.799999,49.299999,980.140015
16/06/2023,20:20:43.933,-791,62,120,-104,-191,252,621,-156,232,26.799999,49.299999,980.140015
16/06/2023,20:20:43.942,-791,62,120,8,-94,278,631,-148,231,26.799999,49.299999,980.140015
16/06/2023,20:20:43.952,-778,197,197,160,-63,260,622,-150,225,26.799999,49.299999,980.140015
16/06/2023,20:20:43.962,-795,197,268,206,0,222,616,-144,232,26.799999,49.299999,980.140015
16/06/2023,20:20:43.971,-828,207,328,62,62,173,631,-132,223,26.799999,49.299999,980.140015
16/06/2023,20:20:43.980,-868,160,404,-220,68,109,639,-139,222,26.799999,49.299999,980.140015
16/06/2023,20:20:43.990,-932,164,455,-502,17,92,636,-150,229,26.799999,49.299999,980.140015
16/06/2023,20:20:43.998,-1017,193,492,-727,-53,65,636,-150,229,26.799999,49.299999,980.140015
16/06/2023,20:20:44.008,-1070,194,507,-824,-78,71,624,-160,229,26.799999,49.299999,980.140015
16/06/2023,20:20:44.018,-1139,170,544,-794,-80,70,637,-136,204,26.799999,49.299999,980.140015
16/06/2023,20:20:44.027,-1233,163,611,-644,-80,69,627,-145,193,26.799999,49.299999,980.140015
16/06/2023,20:20:44.036,-1276,191,680,-446,-87,28,628,-126,216,26.799999,49.299999,980.140015
16/06/2023,20:20:44.045,-1257,226,714,-280,-108,-17,630,-130,216,26.799999,49.299999,980.140015
16/06/2023,20:20:44.055,-1162,256,645,-217,-108,-56,633,-126,196,26.799999,49.299999,980.140015
16/06/2023,20:20:44.065,-967,270,506,-251,-86,-58,637,-117,180,26.799999,49.299999,980.140015
16/06/2023,20:20:44.074,-746,294,380,-364,-39,-5,645,-118,189,26.799999,49.299999,980.140015
16/06/2023,20:20:44.083,-581,353,281,-481,69,66,636,-105,181,26.799999,49.299999,980.140015
16/06/2023,20:20:44.092,-514,407,89,-521,262,144,636,-105,181,26.799999,49.299999,980.140015
16/06/2023,20:20:44.101,-734,488,0,-379,320,158,628,-117,190,26.799999,49.299999,980.140015
16/06/2023,20:20:44.111,-1254,559,-100,-107,407,-9,627,-118,181,26.799999,49.299999,980.140015
16/06/2023,20:20:44.121,-1761,563,-219,389,727,-82,649,-100,190,26.799999,49.299999,980.140015
16/06/2023,20:20:44.130,-2051,528,-211,1084,634,-81,649,-106,181,26.799999,49.299999,980.140015
16/06/2023,20:20:44.140,-1974,475,-78,1400,539,-35,652,-124,202,26.799999,49.299999,980.140015
16/06/2023,20:20:44.149,-1669,440,321,976,397,-58,640,-111,217,26.799999,49.299999,980.140015
16/06/2023,20:20:44.158,-1441,416,362,628,208,-129,640,-115,228,26.799999,49.299999,980.140015
16/06/2023,20:20:44.168,-1081,209,-169,470,222,-5,643,-109,219,26.799999,49.299999,980.140015
16/06/2023,20:20:44.177,-511,-114,-669,480,614,258,657,-102,217,26.799999,49.299999,980.140015
16/06/2023,20:20:44.195,-101,-209,-501,1802,1113,364,652,-79,249,26.799999,49.299999,980.140015
16/06/2023,20:20:44.205,-265,-172,-350,2174,1079,181,660,-82,237,26.799999,49.299999,980.140015
16/06/2023,20:20:44.214,-617,-195,-248,2034,1003,24,646,-96,237,26.799999,49.299999,980.140015
16/06/2023,20:20:44.224,-905,-257,-189,1490,1151,-84,670,-88,261,26.799999,49.299999,980.140015
16/06/2023,20:20:44.233,-1026,-402,-183,1490,1151,-84,646,-91,271,26.799999,49.299999,980.140015
16/06/2023,20:20:44.243,-1095,-537,-187,1251,1299,-248,652,-75,282,26.799999,49.299999,980.140015
16/06/2023,20:20:44.252,-1098,-462,-172,1230,1400,-417,648,-73,291,26.799999,49.299999,980.140015
16/06/2023,20:20:44.261,-992,-282,-73,1386,1500,-527,637,-69,291,26.799999,49.299999,980.140015
16/06/2023,20:20:44.272,-945,-131,19,1515,1531,-465,637,-69,291,26.799999,49.500000,980.140015
16/06/2023,20:20:44.279,-945,-131,19,1317,1469,-268,643,-84,355,26.799999,49.500000,980.340027
16/06/2023,20:20:44.289,-1053,71,-152,892,1321,-129,652,-61,336,26.799999,49.500000,980.340027
16/06/2023,20:20:44.299,-1053,71,-152,553,1296,-37,645,-66,355,26.799999,49.500000,980.340027
16/06/2023,20:20:44.308,-1016,122,-139,357,1300,134,636,-52,346,26.799999,49.500000,980.340027
16/06/2023,20:20:44.318,-945,139,-33,302,1041,168,645,-46,357,26.799999,49.500000,980.340027
16/06/2023,20:20:44.327,-885,85,14,250,756,76,639,-52,361,26.799999,49.500000,980.340027
16/06/2023,20:20:44.336,-904,-23,0,134,613,22,643,-49,373,26.799999,49.500000,980.340027
16/06/2023,20:20:44.346,-957,-20,-37,-39,593,47,639,-30,378,26.799999,49.500000,980.340027
16/06/2023,20:20:44.355,-959,52,-48,97,603,67,630,-51,381,26.799999,49.500000,980.340027
16/06/2023,20:20:44.364,-980,49,-31,315,717,71,630,-51,381,26.799999,49.500000,980.340027
16/06/2023,20:20:44.374,-1003,26,-48,460,723,88,639,-33,403,26.799999,49.500000,980.340027
16/06/2023,20:20:44.383,-969,30,-80,626,629,187,621,-28,391,26.799999,49.500000,980.340027
16/06/2023,20:20:44.393,-925,37,-85,651,656,205,619,-42,433,26.799999,49.500000,980.340027
16/06/2023,20:20:44.402,-927,-7,-64,491,580,167,633,-37,415,26.799999,49.500000,980.340027
16/06/2023,20:20:44.411,-957,-73,-54,251,423,143,624,-19,396,26.799999,49.500000,980.340027
16/06/2023,20:20:44.421,-940,-86,-57,33,377,153,607,-37,417,26.799999,49.500000,980.340027
16/06/2023,20:20:44.430,-883,-50,-85,17,404,167,621,-24,423,26.799999,49.500000,980.340027
16/06/2023,20:20:44.439,-851,-12,-85,169,490,181,622,-25,420,26.799999,49.500000,980.340027
16/06/2023,20:20:44.449,-862,13,-83,357,554,208,595,-27,421,26.799999,49.500000,980.340027
16/06/2023,20:20:44.457,-870,27,-111,515,605,216,595,-27,421,26.799999,49.500000,980.340027
16/06/2023,20:20:44.467,-869,30,-110,627,555,180,615,-33,435,26.799999,49.500000,980.340027
16/06/2023,20:20:44.477,-876,45,-113,634,520,178,603,-36,453,26.799999,49.500000,980.340027
16/06/2023,20:20:44.486,-875,85,-133,562,483,148,619,-31,438,26.799999,49.500000,980.340027
16/06/2023,20:20:44.496,-844,123,-168,400,449,104,606,-37,418,26.799999,49.500000,980.340027
16/06/2023,20:20:44.505,-837,172,-223,210,469,56,625,-13,445,26.799999,49.500000,980.340027
16/06/2023,20:20:44.514,-884,215,-241,68,479,-1,597,-6,453,26.799999,49.500000,980.340027
16/06/2023,20:20:44.524,-967,248,-248,37,519,-42,609,-10,450,26.799999,49.500000,980.340027
16/06/2023,20:20:44.533,-976,222,-245,159,505,-57,601,-9,469,26.799999,49.500000,980.340027
16/06/2023,20:20:44.542,-978,155,-227,374,603,-64,595,-25,459,26.799999,49.500000,980.340027
16/06/2023,20:20:44.551,-1141,142,-167,584,639,-65,595,-25,459,26.799999,49.500000,980.340027
16/06/2023,20:20:44.561,-1204,84,-135,688,530,-85,592,-7,487,26.799999,49.500000,980.340027
16/06/2023,20:20:44.571,-1223,21,-128,688,530,-85,577,3,487,26.799999,49.500000,980.340027
16/06/2023,20:20:44.579,-1278,13,-85,628,536,-100,571,3,489,26.799999,49.500000,980.340027
16/06/2023,20:20:44.589,-1254,5,-81,438,487,-125,588,1,490,26.799999,49.500000,980.340027
16/06/2023,20:20:44.608,-1224,-83,-62,118,265,-123,589,19,471,26.799999,49.500000,980.340027
16/06/2023,20:20:44.617,-1239,-159,-8,-20,157,-83,597,21,472,26.799999,49.500000,980.340027
16/06/2023,20:20:44.627,-1301,-170,107,-104,53,-19,600,16,483,26.799999,49.500000,980.340027
16/06/2023,20:20:44.636,-1350,-112,259,-186,-63,28,574,22,474,26.799999,49.500000,980.340027
16/06/2023,20:20:44.645,-1350,-112,259,-399,-202,39,574,22,474,26.799999,49.500000,980.340027
16/06/2023,20:20:44.654,-1341,-56,411,-680,-406,-14,592,22,489,26.799999,49.500000,980.340027
16/06/2023,20:20:44.664,-1378,-29,372,-874,-543,-106,580,25,495,26.799999,49.500000,980.340027
16/06/2023,20:20:44.674,-1540,-86,75,-489,-445,-163,598,1,478,26.799999,49.500000,980.340027
16/06/2023,20:20:44.683,-1685,-230,-72,-1,-540,-133,586,34,475,26.799999,49.500000,980.340027
16/06/2023,20:20:44.692,-1672,-221,96,-308,-794,-142,597,33,462,26.799999,49.500000,980.340027
16/06/2023,20:20:44.702,-1642,-20,249,-1022,-1051,-235,594,15,487,26.799999,49.500000,980.340027
16/06/2023,20:20:44.711,-1515,127,214,-1458,-1269,-350,601,24,466,26.799999,49.500000,980.340027
16/06/2023,20:20:44.720,-1404,269,134,-1326,-1519,-538,621,13,456,26.799999,49.500000,980.340027
16/06/2023,20:20:44.729,-1376,108,26,-979,-1750,-681,621,13,456,26.799999,49.500000,980.340027
16/06/2023,20:20:44.739,-1210,-360,-338,-765,-1575,-571,624,31,435,26.799999,49.500000,980.340027
16/06/2023,20:20:44.749,-985,-468,-663,-715,-1392,-527,640,36,435,26.799999,49.500000,980.340027
16/06/2023,20:20:44.758,-946,-72,-585,-728,-1271,-434,618,21,439,26.799999,49.500000,980.340027
16/06/2023,20:20:44.767,-1029,304,-498,-451,-1225,-359,630,36,417,26.799999,49.500000,980.340027
16/06/2023,20:20:44.777,-1001,213,-491,284,-1034,-297,639,31,415,26.799999,49.500000,980.340027
16/06/2023,20:20:44.786,-993,-21,-401,1211,-853,-211,660,10,436,26.799999,49.500000,980.340027
16/06/2023,20:20:44.795,-1011,-105,-285,1809,-856,-225,645,45,421,26.799999,49.500000,980.340027
16/06/2023,20:20:44.805,-1106,-33,-283,1327,-818,-142,639,33,418,26.799999,49.500000,980.340027
16/06/2023,20:20:44.814,-1190,78,-512,-321,-619,-116,657,63,435,26.799999,49.500000,980.340027
16/06/2023,20:20:44.823,-1147,96,-406,-2077,-1022,-51,657,63,435,26.799999,49.500000,980.340027
16/06/2023,20:20:44.832,-1041,139,-84,-2456,-1598,-135,675,42,423,26.799999,49.500000,980.340027
16/06/2023,20:20:44.842,-903,238,-108,-1992,-1444,-180,675,30,385,26.799999,49.500000,980.340027
16/06/2023,20:20:44.852,-915,162,-202,-1722,-1207,-129,682,16,366,26.799999,49.500000,980.340027
16/06/2023,20:20:44.861,-983,28,-261,-1670,-1219,-15,676,25,381,26.799999,49.500000,980.340027
16/06/2023,20:20:44.870,-968,16,-277,-1620,-1186,34,678,15,382,26.799999,49.500000,980.340027
16/06/2023,20:20:44.880,-962,-54,-256,-1656,-1272,70,681,15,349,26.799999,49.500000,980.340027
16/06/2023,20:20:44.889,-925,-201,-230,-1548,-1351,159,691,28,361,26.799999,49.500000,980.340027
16/06/2023,20:20:44.898,-853,-279,-208,-1548,-1351,159,696,0,348,26.799999,49.500000,980.340027
16/06/2023,20:20:44.908,-778,-229,-177,-1501,-1274,268,702,13,343,26.799999,49.500000,980.340027
16/06/2023,20:20:44.917,-733,-163,-142,-1292,-1200,57,702,13,343,26.799999,49.500000,980.340027
16/06/2023,20:20:44.926,-729,-119,-169,-1293,-1206,65,700,1,322,26.799999,49.500000,980.340027
16/06/2023,20:20:44.936,-719,-106,-204,-1264,-1109,90,696,-1,324,26.799999,49.500000,980.340027
16/06/2023,20:20:44.945,-684,-114,-220,-1279,-970,146,697,-4,301,26.799999,49.500000,980.340027
16/06/2023,20:20:44.958,-676,-96,-238,-1306,-841,140,703,-1,306,26.799999,49.500000,980.340027
16/06/2023,20:20:44.964,-687,-41,-243,-1328,-787,171,714,4,291,26.799999,49.500000,980.340027
16/06/2023,20:20:44.973,-668,21,-215,-1297,-688,145,709,-6,306,26.799999,49.500000,980.340027
16/06/2023,20:20:44.983,-661,71,-159,-1224,-556,118,706,3,286,26.799999,49.500000,980.340027
16/06/2023,20:20:44.992,-661,71,-159,-1121,-443,127,718,-3,294,26.799999,49.500000,980.340027
16/06/2023,20:20:45.001,-659,119,-103,-1010,-354,159,714,-9,271,26.799999,49.500000,980.340027
16/06/2023,20:20:45.020,-623,126,-48,-827,-235,151,700,-7,289,26.799999,49.500000,980.340027
16/06/2023,20:20:45.030,-616,88,-35,-759,-179,165,708,-10,277,26.799999,49.500000,980.340027
16/06/2023,20:20:45.039,-635,80,-6,-647,-149,202,705,-4,279,26.799999,49.500000,980.340027
16/06/2023,20:20:45.048,-673,52,29,-567,-112,212,712,-16,264,26.799999,49.500000,980.340027
16/06/2023,20:20:45.058,-683,40,34,-569,-68,226,718,-16,267,26.799999,49.500000,980.340027
16/06/2023,20:20:45.067,-690,79,63,-576,-2,235,702,-21,267,26.799999,49.500000,980.340027
16/06/2023,20:20:45.076,-739,106,113,-602,11,200,712,-33,264,26.799999,49.500000,980.340027
16/06/2023,20:20:45.086,-789,110,136,-597,51,175,706,-27,271,26.799999,49.500000,980.340027
16/06/2023,20:20:45.095,-823,119,163,-614,89,153,709,-39,264,26.799999,49.500000,980.340027
16/06/2023,20:20:45.104,-868,139,202,-674,131,140,709,-39,264,26.799999,49.500000,980.340027
16/06/2023,20:20:45.113,-922,160,236,-752,148,134,717,-28,267,26.799999,49.500000,980.340027
16/06/2023,20:20:45.123,-1020,172,275,-824,127,111,708,-27,273,26.799999,49.500000,980.340027
16/06/2023,20:20:45.133,-1141,196,377,-788,84,101,723,-25,283,26.799999,49.500000,980.340027
16/06/2023,20:20:45.142,-1251,229,546,-644,-23,52,718,-42,262,26.799999,49.500000,980.340027
16/06/2023,20:20:45.151,-1389,247,729,-467,-208,-11,717,-33,264,26.799999,49.500000,980.340027
16/06/2023,20:20:45.161,-1510,251,831,-302,-398,-62,712,-46,273,26.799999,49.500000,980.340027
16/06/2023,20:20:45.170,-1566,271,785,-311,-421,-71,723,-39,274,26.799999,49.500000,980.340027
16/06/2023,20:20:45.179,-1383,238,631,-589,-316,-97,706,-52,276,26.799999,49.500000,980.340027
16/06/2023,20:20:45.188,-1000,163,454,-1024,-249,-84,706,-52,276,26.799999,49.500000,980.340027
16/06/2023,20:20:45.198,-671,140,291,-1391,-175,25,700,-48,264,26.799999,49.500000,980.340027
16/06/2023,20:20:45.208,-432,133,146,-1546,-69,160,718,-30,265,26.799999,49.500000,980.340027
16/06/2023,20:20:45.217,-286,123,-4,-1384,44,287,697,-33,249,26.799999,49.500000,980.340027
16/06/2023,20:20:45.226,-393,160,-193,-930,206,358,714,-30,259,26.799999,49.500000,980.340027
16/06/2023,20:20:45.236,-828,216,-440,-164,329,201,718,-45,258,26.799999,49.500000,980.340027
16/06/2023,20:20:45.245,-1505,323,-561,479,825,19,742,-51,262,26.799999,49.500000,980.340027
16/06/2023,20:20:45.254,-2057,427,-517,1211,941,-56,714,-42,276,26.799999,49.500000,980.340027
16/06/2023,20:20:45.264,-2135,292,-236,1211,941,-56,717,-39,277,26.799999,49.500000,980.340027
16/06/2023,20:20:45.273,-1861,92,369,1551,745,74,720,-43,283,26.799999,49.500000,980.340027
16/06/2023,20:20:45.282,-1522,265,722,935,505,240,720,-43,283,26.799999,49.500000,980.340027
16/06/2023,20:20:45.291,-1113,561,279,125,213,93,718,-45,301,26.799999,49.500000,980.340027
16/06/2023,20:20:45.301,-601,625,-462,-123,296,-182,700,-39,273,26.799999,49.500000,980.340027
16/06/2023,20:20:45.311,-154,524,-831,441,380,-217,703,-40,294,26.799999,49.500000,980.340027
16/06/2023,20:20:45.323,-3,255,-725,662,717,-381,714,-55,301,26.799999,49.099998,980.369995
16/06/2023,20:20:45.329,-267,-170,-408,616,801,-421,699,-34,306,26.799999,49.099998,980.369995
16/06/2023,20:20:45.339,-267,-170,-408,619,664,-240,712,-36,310,26.799999,49.099998,980.369995
16/06/2023,20:20:45.348,-717,-590,-321,918,872,-53,709,-31,318,26.799999,49.099998,980.369995
16/06/2023,20:20:45.358,-1140,-773,-166,1261,1151,-18,705,-30,321,26.799999,49.099998,980.369995
16/06/2023,20:20:45.366,-1289,-775,88,1318,1251,-119,705,-30,321,26.799999,49.099998,980.369995
16/06/2023,20:20:45.376,-1201,-756,-28,1116,1462,-265,676,-24,366,26.799999,49.099998,980.369995
16/06/2023,20:20:45.386,-1079,-729,-221,922,1347,-413,685,-13,357,26.799999,49.099998,980.369995
16/06/2023,20:20:45.395,-1009,-584,-214,658,758,-523,687,-27,367,26.799999,49.099998,980.369995
16/06/2023,20:20:45.404,-967,-304,-231,320,383,-494,703,-16,384,26.799999,49.099998,980.369995
16/06/2023,20:20:45.414,-979,-28,-269,86,707,-241,703,1,373,26.799999,49.099998,980.369995
16/06/2023,20:20:45.451,-983,46,-70,-892,218,48,688,-39,403,26.799999,49.099998,980.369995
16/06/2023,20:20:45.460,-997,-14,-110,-1311,132,64,688,-39,403,26.799999,49.099998,980.369995
16/06/2023,20:20:45.469,-991,70,-156,-1603,216,123,681,-36,399,26.799999,49.099998,980.369995
16/06/2023,20:20:45.479,-1003,189,-82,-1744,215,181,693,-22,387,26.799999,49.099998,980.369995
16/06/2023,20:20:45.489,-954,215,1,-1900,174,255,688,-36,376,26.799999,49.099998,980.369995
16/06/2023,20:20:45.498,-893,280,-47,-1847,232,326,678,-43,400,26.799999,49.099998,980.369995
16/06/2023,20:20:45.507,-875,386,-44,-1496,364,339,684,-63,382,26.799999,49.099998,980.369995
16/06/2023,20:20:45.517,-869,408,63,-1101,434,279,667,-55,391,26.799999,49.099998,980.369995
16/06/2023,20:20:45.526,-868,318,69,-741,443,202,667,-54,390,26.799999,49.099998,980.369995
16/06/2023,20:20:45.536,-890,160,4,-413,476,184,670,-75,399,26.799999,49.099998,980.369995
16/06/2023,20:20:45.545,-903,29,-23,-246,466,208,669,-52,387,26.799999,49.099998,980.369995
16/06/2023,20:20:45.554,-881,14,-55,-221,478,206,669,-52,387,26.799999,49.099998,980.369995
16/06/2023,20:20:45.563,-869,53,-102,-268,522,169,678,-69,405,26.799999,49.099998,980.369995
16/06/2023,20:20:45.573,-887,102,-80,-353,597,121,661,-69,411,26.799999,49.099998,980.369995
16/06/2023,20:20:45.582,-914,156,11,-494,610,57,651,-52,409,26.799999,49.099998,980.369995
16/06/2023,20:20:45.592,-913,153,38,-529,573,-2,648,-76,400,26.799999,49.099998,980.369995
16/06/2023,20:20:45.604,-892,92,-35,-349,540,-21,652,-75,396,26.799999,49.099998,980.369995
16/06/2023,20:20:45.610,-870,20,-146,-349,540,-21,645,-70,427,26.799999,49.099998,980.369995
16/06/2023,20:20:45.620,-868,-6,-201,-22,513,-11,649,-90,405,26.799999,49.099998,980.369995
16/06/2023,20:20:45.629,-885,80,-177,259,517,14,639,-66,421,26.799999,49.099998,980.369995
16/06/2023,20:20:45.639,-895,218,-100,422,544,55,637,-81,421,26.799999,49.099998,980.369995
16/06/2023,20:20:45.647,-913,244,-52,427,547,46,637,-81,421,26.799999,49.099998,980.369995
16/06/2023,20:20:45.657,-942,147,-108,445,538,-18,649,-75,420,26.799999,49.099998,980.369995
16/06/2023,20:20:45.667,-981,47,-192,618,482,-69,633,-72,433,26.799999,49.099998,980.369995
16/06/2023,20:20:45.676,-1020,4,-240,896,493,-34,637,-72,424,26.799999,49.099998,980.369995
16/06/2023,20:20:45.685,-1020,4,-240,1119,467,-1,637,-82,432,26.799999,49.099998,980.369995
16/06/2023,20:20:45.695,-1055,-1,-265,1159,439,-6,622,-69,432,26.799999,49.099998,980.369995
16/06/2023,20:20:45.707,-1115,23,-265,966,456,-43,628,-40,442,26.799999,49.099998,980.369995
16/06/2023,20:20:45.714,-1211,73,-202,562,456,-115,624,-51,457,26.799999,49.099998,980.369995
16/06/2023,20:20:45.723,-1287,100,-97,53,356,-159,633,-61,451,26.799999,49.099998,980.369995
16/06/2023,20:20:45.732,-1293,65,-27,-372,210,-209,633,-61,451,26.799999,49.099998,980.369995
16/06/2023,20:20:45.741,-1266,-27,-36,-574,133,-229,639,-48,462,26.799999,49.099998,980.369995
16/06/2023,20:20:45.751,-1249,-143,-16,-607,93,-225,627,-49,462,26.799999,49.099998,980.369995
16/06/2023,20:20:45.760,-1239,-236,94,-694,-5,-266,618,-63,444,26.799999,49.099998,980.369995
16/06/2023,20:20:45.770,-1263,-332,200,-857,-141,-277,622,-61,468,26.799999,49.099998,980.369995
16/06/2023,20:20:45.779,-1411,-456,241,-1099,-285,-315,642,-63,456,26.799999,49.099998,980.369995
16/06/2023,20:20:45.788,-1670,-542,106,-1149,-287,-326,636,-52,439,26.799999,49.099998,980.369995
16/06/2023,20:20:45.798,-1799,-497,-135,-1020,-386,-295,640,-73,436,26.799999,49.099998,980.369995
16/06/2023,20:20:45.807,-1764,-239,-137,-1119,-610,-297,636,-72,445,26.799999,49.099998,980.369995
16/06/2023,20:20:45.817,-1520,6,15,-1570,-851,-389,648,-78,450,26.799999,49.099998,980.369995
16/06/2023,20:20:45.825,-1385,193,85,-2111,-1047,-550,648,-78,450,26.799999,49.099998,980.369995
16/06/2023,20:20:45.835,-1487,369,23,-2218,-1339,-621,654,-76,427,26.799999,49.099998,980.369995
16/06/2023,20:20:45.845,-1397,298,-100,-2162,-1514,-721,666,-90,397,26.799999,49.099998,980.369995
16/06/2023,20:20:45.882,-1056,-231,-438,-904,-1391,-631,672,-87,372,26.799999,49.099998,980.369995
16/06/2023,20:20:45.892,-966,-235,-571,-270,-1173,-437,690,-87,328,26.799999,49.099998,980.369995
16/06/2023,20:20:45.901,-935,-215,-404,91,-1185,-368,682,-90,324,26.799999,49.099998,980.369995
16/06/2023,20:20:45.910,-940,-247,-233,202,-1221,-364,703,-85,325,26.799999,49.099998,980.369995
16/06/2023,20:20:45.919,-937,-354,-348,-293,-1087,-258,703,-85,325,26.799999,49.099998,980.369995
16/06/2023,20:20:45.928,-1032,-321,-405,-1265,-827,-348,697,-84,321,26.799999,49.099998,980.369995
16/06/2023,20:20:45.938,-1127,-231,-345,-2483,-994,-328,715,-85,304,26.799999,49.099998,980.369995
16/06/2023,20:20:45.948,-1057,-118,-254,-2850,-1246,-389,729,-94,289,26.799999,49.099998,980.369995
16/06/2023,20:20:45.957,-969,72,-144,-2850,-1246,-389,712,-102,279,26.799999,49.099998,980.369995
16/06/2023,20:20:45.966,-936,213,-134,-2770,-1400,-456,717,-93,268,26.799999,49.099998,980.369995
16/06/2023,20:20:45.976,-983,228,-131,-2266,-1325,-465,726,-88,259,26.799999,49.099998,980.369995
16/06/2023,20:20:45.985,-1102,43,-215,-1871,-1142,-435,723,-96,250,26.799999,49.099998,980.369995
16/06/2023,20:20:45.995,-1163,-184,-259,-1949,-1074,-224,726,-93,228,26.799999,49.099998,980.369995
16/06/2023,20:20:46.003,-1021,-315,-226,-2285,-1130,158,726,-93,228,26.799999,49.099998,980.369995
16/06/2023,20:20:46.013,-1021,-315,-226,-2410,-1154,438,730,-90,201,26.799999,49.099998,980.369995
16/06/2023,20:20:46.023,-836,-390,-159,-2299,-1168,487,720,-96,204,26.799999,49.099998,980.369995
16/06/2023,20:20:46.032,-836,-390,-159,-2100,-1239,315,727,-100,165,26.799999,49.099998,980.369995
16/06/2023,20:20:46.041,-817,-300,-210,-2001,-1272,196,729,-112,162,26.799999,49.099998,980.369995
16/06/2023,20:20:46.051,-851,-225,-264,-1945,-1250,126,720,-94,151,26.799999,49.099998,980.369995
16/06/2023,20:20:46.060,-867,-195,-310,-1940,-1228,67,736,-112,148,26.799999,49.099998,980.369995
16/06/2023,20:20:46.070,-848,-182,-353,-2005,-1152,68,730,-108,124,26.799999,49.099998,980.369995
16/06/2023,20:20:46.079,-837,-110,-387,-2057,-1038,129,708,-99,103,26.799999,49.099998,980.369995
16/06/2023,20:20:46.088,-804,-32,-383,-1974,-923,111,735,-100,102,26.799999,49.099998,980.369995
16/06/2023,20:20:46.097,-755,47,-354,-1880,-832,112,735,-100,102,26.799999,49.099998,980.369995
16/06/2023,20:20:46.106,-710,164,-324,-1774,-694,149,708,-103,72,26.799999,49.099998,980.369995
16/06/2023,20:20:46.116,-665,256,-280,-1629,-554,159,727,-76,79,26.799999,49.099998,980.369995
16/06/2023,20:20:46.126,-631,284,-223,-1440,-433,163,703,-103,66,26.799999,49.099998,980.369995
16/06/2023,20:20:46.135,-631,264,-182,-1292,-348,134,712,-103,46,26.799999,49.099998,980.369995
16/06/2023,20:20:46.144,-630,245,-176,-1165,-271,137,703,-85,61,26.799999,49.099998,980.369995
16/06/2023,20:20:46.154,-640,221,-168,-1040,-196,178,697,-94,69,26.799999,49.099998,980.369995
16/06/2023,20:20:46.163,-667,161,-151,-976,-176,170,700,-90,46,26.799999,49.099998,980.369995
16/06/2023,20:20:46.173,-698,113,-122,-937,-200,126,715,-87,39,26.799999,49.099998,980.369995
16/06/2023,20:20:46.182,-755,157,-95,-893,-218,70,711,-88,51,26.799999,49.099998,980.369995
16/06/2023,20:20:46.191,-812,254,-58,-803,-156,68,711,-88,51,26.799999,49.099998,980.369995
16/06/2023,20:20:46.200,-851,328,-7,-756,-43,70,694,-90,42,26.799999,49.099998,980.369995
16/06/2023,20:20:46.210,-878,378,34,-709,17,47,699,-82,30,26.799999,49.099998,980.369995
16/06/2023,20:20:46.219,-939,409,111,-676,4,55,699,-78,43,26.799999,49.099998,980.369995
16/06/2023,20:20:46.229,-1013,412,189,-690,-108,38,706,-90,33,26.799999,49.099998,980.369995
16/06/2023,20:20:46.238,-1056,430,257,-662,-206,18,687,-73,57,26.799999,49.099998,980.369995
16/06/2023,20:20:46.248,-1133,428,427,-604,-366,-31,705,-87,33,26.799999,49.099998,980.369995
16/06/2023,20:20:46.257,-1232,389,650,-551,-551,-103,690,-73,31,26.799999,49.099998,980.369995
16/06/2023,20:20:46.266,-1323,332,785,-492,-713,-143,694,-90,22,26.799999,49.099998,980.369995
16/06/2023,20:20:46.285,-1387,210,775,-471,-814,-179,703,-76,24,26.799999,49.099998,980.369995
16/06/2023,20:20:46.294,-1187,85,408,-466,-614,-43,706,-55,18,26.799999,49.099998,980.369995
16/06/2023,20:20:46.304,-930,56,293,-466,-614,-43,688,-81,10,26.799999,49.099998,980.369995
16/06/2023,20:20:46.313,-699,49,210,-603,-531,52,675,-94,10,26.799999,49.099998,980.369995
16/06/2023,20:20:46.322,-539,88,101,-762,-472,153,688,-64,1,26.799999,49.099998,980.369995
16/06/2023,20:20:46.332,-432,152,10,-789,-308,271,693,-75,-12,26.799999,49.099998,980.369995
16/06/2023,20:20:46.341,-424,180,-95,-639,-96,375,676,-82,-4,26.799999,49.099998,980.369995
16/06/2023,20:20:46.351,-693,211,-132,-365,72,463,675,-94,-3,26.799999,49.099998,980.369995
16/06/2023,20:20:46.360,-1221,227,-332,10,54,430,675,-94,-3,26.799999,49.900002,980.369995
16/06/2023,20:20:46.369,-1854,245,-442,427,197,235,673,-81,-4,26.799999,49.900002,980.400024
16/06/2023,20:20:46.378,-1854,245,-442,891,555,176,673,-81,-4,26.799999,49.900002,980.400024
16/06/2023,20:20:46.391,-2207,248,-159,1245,373,261,696,-85,12,26.799999,49.900002,980.400024
16/06/2023,20:20:46.397,-1905,144,167,907,331,414,688,-97,19,26.799999,49.900002,980.400024
16/06/2023,20:20:46.407,-1390,253,437,45,502,425,688,-97,19,26.799999,49.900002,980.400024
16/06/2023,20:20:46.416,-958,598,140,-203,467,207,679,-105,25,26.799999,49.900002,980.400024
16/06/2023,20:20:46.426,-552,796,-574,522,372,130,690,-118,25,26.799999,49.900002,980.400024
16/06/2023,20:20:46.435,-322,788,-767,1211,261,26,693,-115,31,26.799999,49.900002,980.400024
16/06/2023,20:20:46.444,-242,615,-491,1336,308,-23,691,-121,34,26.799999,49.900002,980.400024
16/06/2023,20:20:46.454,-319,331,-164,938,501,-230,697,-121,37,26.799999,49.900002,980.400024
16/06/2023,20:20:46.462,-533,-92,-81,640,777,-343,697,-121,37,26.799999,49.900002,980.400024
16/06/2023,20:20:46.472,-847,-615,-239,491,1173,-203,700,-120,67,26.799999,49.900002,980.400024
16/06/2023,20:20:46.482,-1142,-958,-244,641,1199,-126,705,-114,67,26.799999,49.900002,980.400024
16/06/2023,20:20:46.491,-1255,-938,-97,1020,1348,-94,709,-136,70,26.799999,49.900002,980.400024
16/06/2023,20:20:46.501,-1203,-690,-9,1419,1686,-48,699,-124,87,26.799999,49.900002,980.400024
16/06/2023,20:20:46.510,-1091,-398,-39,1576,1762,44,715,-138,111,26.799999,49.900002,980.400024
16/06/2023,20:20:46.519,-1058,-120,-61,1412,1564,180,717,-136,118,26.799999,49.900002,980.400024
16/06/2023,20:20:46.529,-1081,25,-37,970,1331,379,715,-145,130,26.799999,49.900002,980.400024
16/06/2023,20:20:46.538,-1095,69,3,455,1219,535,714,-130,156,26.799999,49.900002,980.400024
16/06/2023,20:20:46.547,-1013,66,37,67,1053,569,727,-132,166,26.799999,49.900002,980.400024
16/06/2023,20:20:46.556,-920,67,-3,-198,805,462,727,-132,166,26.799999,49.900002,980.400024
16/06/2023,20:20:46.565,-891,70,-18,-592,617,198,705,-129,181,26.799999,49.900002,980.400024
16/06/2023,20:20:46.575,-861,197,30,-955,298,69,699,-145,180,26.799999,49.900002,980.400024
16/06/2023,20:20:46.585,-855,341,80,-1116,132,6,706,-133,178,26.799999,49.900002,980.400024
16/06/2023,20:20:46.594,-873,296,101,-1082,90,-41,703,-132,184,26.799999,49.900002,980.400024
16/06/2023,20:20:46.604,-890,177,42,-900,134,-69,712,-147,168,26.799999,49.900002,980.400024
16/06/2023,20:20:46.613,-943,14,-25,-598,202,-28,714,-147,163,26.799999,49.900002,980.400024
16/06/2023,20:20:46.622,-1009,-157,-66,-255,243,55,705,-144,160,26.799999,49.900002,980.400024
16/06/2023,20:20:46.632,-1003,-261,-93,-255,243,55,696,-144,180,26.799999,49.900002,980.400024
16/06/2023,20:20:46.644,-970,-255,-147,45,337,155,696,-156,168,26.799999,49.900002,980.400024
16/06/2023,20:20:46.650,-866,-103,-248,220,399,319,696,-156,168,26.799999,49.900002,980.400024
16/06/2023,20:20:46.659,-763,88,-223,320,541,444,694,-148,178,26.799999,49.900002,980.400024
16/06/2023,20:20:46.669,-789,184,-106,417,669,456,705,-154,180,26.799999,49.900002,980.400024
16/06/2023,20:20:46.679,-845,202,-54,460,705,398,699,-168,190,26.799999,49.900002,980.400024
16/06/2023,20:20:46.688,-891,162,-55,519,707,323,679,-159,198,26.799999,49.900002,980.400024
16/06/2023,20:20:46.707,-931,49,-153,769,684,240,693,-156,223,26.799999,49.900002,980.400024
16/06/2023,20:20:46.716,-941,31,-200,900,688,238,688,-184,225,26.799999,49.900002,980.400024
16/06/2023,20:20:46.725,-941,31,-200,950,661,223,685,-165,241,26.799999,49.900002,980.400024
16/06/2023,20:20:46.735,-916,36,-235,877,622,222,688,-171,250,26.799999,49.900002,980.400024
16/06/2023,20:20:46.743,-881,59,-268,715,619,229,688,-171,250,26.799999,49.900002,980.400024
16/06/2023,20:20:46.753,-884,78,-258,534,654,225,679,-175,261,26.799999,49.900002,980.400024
16/06/2023,20:20:46.763,-916,78,-245,373,696,220,673,-165,264,26.799999,49.900002,980.400024
16/06/2023,20:20:46.772,-947,66,-254,281,769,213,685,-165,270,26.799999,49.900002,980.400024
16/06/2023,20:20:46.782,-994,107,-221,248,781,187,675,-177,280,26.799999,49.900002,980.400024
16/06/2023,20:20:46.791,-1058,177,-168,257,744,126,669,-198,283,26.799999,49.900002,980.400024
16/06/2023,20:20:46.800,-1127,196,-103,291,714,68,664,-199,280,26.799999,49.900002,980.400024
16/06/2023,20:20:46.810,-1197,166,-12,306,666,9,651,-177,315,26.799999,49.900002,980.400024
16/06/2023,20:20:46.819,-1218,80,53,273,560,-33,667,-172,291,26.799999,49.900002,980.400024
16/06/2023,20:20:46.828,-1224,-10,55,220,442,-43,667,-172,291,26.799999,49.900002,980.400024
16/06/2023,20:20:46.837,-1228,-82,16,130,271,-46,693,-175,297,26.799999,49.900002,980.400024
16/06/2023,20:20:46.847,-1218,-134,-21,-65,115,-46,658,-187,300,26.799999,49.900002,980.400024
16/06/2023,20:20:46.857,-1230,-169,4,-269,22,-34,666,-172,298,26.799999,49.900002,980.400024
16/06/2023,20:20:46.866,-1249,-181,72,-429,-75,-17,669,-178,301,26.799999,49.900002,980.400024
16/06/2023,20:20:46.875,-1227,-154,101,-476,-76,36,661,-168,315,26.799999,49.900002,980.400024
16/06/2023,20:20:46.885,-1206,-80,150,-450,-16,51,667,-189,303,26.799999,49.900002,980.400024
16/06/2023,20:20:46.894,-1205,40,222,-432,17,32,658,-181,307,26.799999,49.900002,980.400024
16/06/2023,20:20:46.903,-1206,134,280,-490,-19,-51,663,-172,313,26.799999,49.900002,980.400024
16/06/2023,20:20:46.913,-1351,131,361,-731,-150,-215,673,-186,310,26.799999,49.900002,980.400024
16/06/2023,20:20:46.921,-1676,9,200,-624,-296,-343,673,-186,310,26.799999,49.900002,980.400024
16/06/2023,20:20:46.931,-1882,-198,-96,-158,-487,-339,670,-180,306,26.799999,49.900002,980.400024
16/06/2023,20:20:46.941,-1750,-318,53,86,-894,-266,663,-178,309,26.799999,49.900002,980.400024
16/06/2023,20:20:46.950,-1555,-104,233,-215,-1173,-383,664,-181,310,26.799999,49.900002,980.400024
16/06/2023,20:20:46.960,-1413,30,42,-880,-1410,-582,658,-189,312,26.799999,49.900002,980.400024
16/06/2023,20:20:46.969,-1370,96,-119,-1463,-1741,-631,661,-186,264,26.799999,49.900002,980.400024
16/06/2023,20:20:46.978,-1276,24,-201,-1544,-1885,-600,685,-178,253,26.799999,49.900002,980.400024
16/06/2023,20:20:46.988,-1097,-401,-334,-1428,-1692,-523,672,-171,246,26.799999,49.900002,980.400024
16/06/2023,20:20:46.997,-998,-498,-479,-1428,-1692,-523,691,-154,235,26.799999,49.900002,980.400024
16/06/2023,20:20:47.006,-940,-111,-539,-1223,-1497,-470,694,-171,241,26.799999,49.900002,980.400024
16/06/2023,20:20:47.015,-912,269,-567,-847,-1437,-422,694,-171,241,26.799999,49.900002,980.400024
16/06/2023,20:20:47.025,-917,282,-527,-219,-1292,-409,691,-169,177,26.799999,49.900002,980.400024
16/06/2023,20:20:47.035,-1086,110,-304,596,-980,-352,700,-169,190,26.799999,49.900002,980.400024
16/06/2023,20:20:47.044,-1197,10,-145,1396,-934,-325,709,-187,202,26.799999,49.900002,980.400024
16/06/2023,20:20:47.053,-1191,35,-209,1530,-1039,-335,693,-168,193,26.799999,49.900002,980.400024
16/06/2023,20:20:47.063,-1210,96,-362,1129,-1144,-277,714,-181,183,26.799999,49.900002,980.400024
16/06/2023,20:20:47.072,-1210,96,-362,134,-1108,-192,726,-178,193,26.799999,49.900002,980.400024
16/06/2023,20:20:47.081,-1217,121,-455,-1111,-1007,-89,705,-178,184,26.799999,49.900002,980.400024
16/06/2023,20:20:47.091,-1142,193,-362,-1714,-1249,-39,712,-183,165,26.799999,49.900002,980.400024
16/06/2023,20:20:47.109,-952,202,-268,-1395,-1089,-68,705,-178,162,26.799999,49.900002,980.400024
16/06/2023,20:20:47.118,-1034,55,-260,-1787,-864,127,703,-172,126,26.799999,49.900002,980.400024
16/06/2023,20:20:47.128,-1037,-126,-293,-2168,-1040,428,700,-184,109,26.799999,49.900002,980.400024
16/06/2023,20:20:47.138,-975,-255,-235,-1963,-1382,552,721,-174,93,26.799999,49.900002,980.400024
16/06/2023,20:20:47.147,-836,-311,-148,-1709,-1547,360,691,-198,58,26.799999,49.900002,980.400024
16/06/2023,20:20:47.160,-732,-259,-151,-1564,-1466,168,694,-192,33,26.799999,49.900002,980.400024
16/06/2023,20:20:47.166,-734,-149,-148,-1248,-1376,62,685,-181,48,26.799999,49.900002,980.400024
16/06/2023,20:20:47.175,-724,-133,-148,-1109,-1274,47,688,-180,18,26.799999,49.900002,980.400024
16/06/2023,20:20:47.184,-688,-175,-165,-1252,-1122,129,685,-168,-6,26.799999,49.900002,980.400024
16/06/2023,20:20:47.194,-667,-166,-170,-1370,-984,84,679,-175,-24,26.799999,49.900002,980.400024
16/06/2023,20:20:47.203,-653,-156,-169,-1451,-853,48,679,-175,-24,26.799999,49.900002,980.400024
16/06/2023,20:20:47.212,-660,-120,-165,-1462,-730,49,681,-162,-37,26.799999,49.900002,980.400024
16/06/2023,20:20:47.222,-680,-10,-154,-1391,-640,37,660,-145,-42,26.799999,49.900002,980.400024
16/06/2023,20:20:47.231,-693,70,-141,-1282,-540,19,651,-151,-54,26.799999,49.900002,980.400024
16/06/2023,20:20:47.241,-702,104,-115,-1131,-428,21,667,-126,-60,26.799999,49.900002,980.400024
16/06/2023,20:20:47.250,-697,127,-103,-975,-322,57,654,-118,-70,26.799999,49.900002,980.400024
16/06/2023,20:20:47.259,-718,155,-70,-804,-248,87,669,-120,-82,26.799999,49.900002,980.400024
16/06/2023,20:20:47.269,-717,162,-2,-627,-260,88,657,-111,-67,26.799999,49.900002,980.400024
16/06/2023,20:20:47.278,-675,141,30,-509,-259,91,651,-118,-72,26.799999,49.900002,980.400024
16/06/2023,20:20:47.287,-650,166,40,-425,-204,136,646,-109,-94,26.799999,49.900002,980.400024
16/06/2023,20:20:47.296,-679,181,93,-432,-155,189,646,-109,-94,26.799999,49.900002,980.400024
16/06/2023,20:20:47.306,-738,125,131,-515,-147,211,651,-115,-94,26.799999,49.900002,980.400024
16/06/2023,20:20:47.316,-776,95,145,-562,-122,191,639,-105,-82,26.799999,49.900002,980.400024
16/06/2023,20:20:47.325,-832,101,159,-637,-63,201,642,-108,-94,26.799999,49.900002,980.400024
16/06/2023,20:20:47.334,-881,122,170,-687,38,186,636,-105,-102,26.799999,49.900002,980.400024
16/06/2023,20:20:47.344,-882,174,207,-687,38,186,618,-94,-102,26.799999,49.900002,980.400024
16/06/2023,20:20:47.353,-886,223,281,-729,182,151,637,-93,-108,26.799999,49.900002,980.400024
16/06/2023,20:20:47.362,-888,249,403,-773,272,121,618,-88,-81,26.799999,49.900002,980.400024
16/06/2023,20:20:47.372,-909,251,512,-810,273,97,607,-84,-114,26.799999,49.900002,980.400024
16/06/2023,20:20:47.381,-983,223,579,-757,222,61,607,-84,-114,26.799999,49.900002,980.400024
16/06/2023,20:20:47.390,-983,223,579,-626,163,31,616,-75,-78,26.799999,49.900002,980.400024
16/06/2023,20:20:47.400,-1259,223,528,-525,113,-25,606,-69,-112,26.799999,49.900002,980.400024
16/06/2023,20:20:47.409,-1349,313,467,-392,73,-112,597,-66,-96,26.799999,49.299999,980.349976
16/06/2023,20:20:47.419,-1349,313,467,-303,11,-147,597,-66,-96,26.799999,49.299999,980.349976
16/06/2023,20:20:47.428,-1313,326,421,-401,-46,-119,618,-69,-118,26.799999,49.299999,980.349976
16/06/2023,20:20:47.437,-1134,295,370,-600,-12,-27,604,-73,-112,26.799999,49.299999,980.349976
16/06/2023,20:20:47.447,-878,272,367,-796,86,53,610,-31,-103,26.799999,49.299999,980.349976
16/06/2023,20:20:47.456,-644,225,353,-974,216,87,595,-39,-102,26.799999,49.299999,980.349976
16/06/2023,20:20:47.466,-589,272,196,-995,278,127,606,-36,-100,26.799999,49.299999,980.349976
16/06/2023,20:20:47.474,-839,406,-82,-693,246,0,606,-36,-100,26.799999,49.299999,980.349976
16/06/2023,20:20:47.484,-1214,455,-492,-206,680,-71,612,-18,-111,26.799999,49.299999,980.349976
16/06/2023,20:20:47.494,-1588,404,-901,746,940,-12,604,-18,-76,26.799999,49.299999,980.349976
16/06/2023,20:20:47.502,-1719,298,-1049,1728,866,84,609,-18,-79,26.799999,49.299999,980.349976
16/06/2023,20:20:47.522,-1649,256,378,1043,-4,-40,615,-42,-40,26.799999,49.299999,980.349976
16/06/2023,20:20:47.531,-1504,345,505,405,72,-170,609,-46,-58,26.799999,49.299999,980.349976
16/06/2023,20:20:47.540,-1059,201,103,53,435,-45,607,-51,-52,26.799999,49.299999,980.349976
16/06/2023,20:20:47.550,-539,-37,-366,4,802,-19,613,-40,-54,26.799999,49.299999,980.349976
16/06/2023,20:20:47.559,-164,-225,-477,518,921,-142,624,-49,-52,26.799999,49.299999,980.349976
16/06/2023,20:20:47.568,-163,-387,-430,1057,899,-137,624,-49,-52,26.799999,49.299999,980.349976
16/06/2023,20:20:47.577,-503,-445,-409,1456,866,-125,616,-51,-33,26.799999,49.299999,980.349976
16/06/2023,20:20:47.587,-765,-329,-171,1479,836,-148,633,-52,-27,26.799999,49.299999,980.349976
16/06/2023,20:20:47.597,-899,-209,109,1201,1027,-192,630,-52,-33,26.799999,49.299999,980.349976
16/06/2023,20:20:47.606,-955,-250,15,1090,1282,-310,622,-40,-25,26.799999,49.299999,980.349976
16/06/2023,20:20:47.615,-958,-347,-201,1152,1278,-433,639,-54,-19,26.799999,49.299999,980.349976
16/06/2023,20:20:47.625,-1051,-360,-248,942,891,-496,640,-63,10,26.799999,49.299999,980.349976
16/06/2023,20:20:47.634,-1141,-265,-256,437,618,-403,637,-64,36,26.799999,49.299999,980.349976
16/06/2023,20:20:47.644,-1163,-102,-227,-151,752,-102,658,-57,19,26.799999,49.299999,980.349976
16/06/2023,20:20:47.653,-1132,-9,-60,-658,941,160,648,-64,43,26.799999,49.299999,980.349976
16/06/2023,20:20:47.662,-1064,78,113,-869,663,229,648,-64,43,26.799999,49.299999,980.349976
16/06/2023,20:20:47.671,-1017,120,146,-953,333,104,639,-58,39,26.799999,49.299999,980.349976
16/06/2023,20:20:47.681,-972,55,105,-971,250,89,649,-57,33,26.799999,49.299999,980.349976
16/06/2023,20:20:47.690,-963,11,81,-971,250,89,639,-52,36,26.799999,49.299999,980.349976
16/06/2023,20:20:47.700,-985,24,120,-879,292,166,673,-51,52,26.799999,49.299999,980.349976
16/06/2023,20:20:47.709,-1006,-14,121,-742,360,224,637,-37,45,26.799999,49.299999,980.349976
16/06/2023,20:20:47.718,-1023,-135,37,-601,276,255,646,-34,40,26.799999,49.299999,980.349976
16/06/2023,20:20:47.728,-1008,-165,-27,-516,341,337,643,-37,52,26.799999,49.299999,980.349976
16/06/2023,20:20:47.737,-960,-100,-106,-446,407,427,636,-45,45,26.799999,49.299999,980.349976
16/06/2023,20:20:47.747,-931,-18,-152,-368,480,517,633,-39,64,26.799999,49.299999,980.349976
16/06/2023,20:20:47.755,-931,-18,-152,-231,638,554,633,-39,64,26.799999,49.299999,980.349976
16/06/2023,20:20:47.765,-919,63,-85,-187,630,531,643,-37,70,26.799999,49.299999,980.349976
16/06/2023,20:20:47.775,-931,208,0,-344,564,430,636,-46,81,26.799999,49.299999,980.349976
16/06/2023,20:20:47.784,-904,300,3,-584,476,323,636,-39,85,26.799999,49.299999,980.349976
16/06/2023,20:20:47.793,-844,246,-84,-692,426,227,640,-45,82,26.799999,49.299999,980.349976
16/06/2023,20:20:47.803,-825,181,-151,-644,433,186,639,-57,69,26.799999,49.299999,980.349976
16/06/2023,20:20:47.812,-802,152,-177,-482,514,175,634,-48,106,26.799999,49.299999,980.349976
16/06/2023,20:20:47.822,-792,134,-171,-286,608,172,630,-54,88,26.799999,49.299999,980.349976
16/06/2023,20:20:47.831,-828,152,-139,-121,621,150,633,-64,93,26.799999,49.299999,980.349976
16/06/2023,20:20:47.840,-851,182,-158,66,590,120,633,-64,93,26.799999,49.299999,980.349976
16/06/2023,20:20:47.849,-847,188,-223,254,561,88,621,-57,100,26.799999,49.299999,980.349976
16/06/2023,20:20:47.859,-852,187,-265,437,514,58,633,-67,106,26.799999,49.299999,980.349976
16/06/2023,20:20:47.868,-839,180,-276,541,475,45,642,-57,114,26.799999,49.299999,980.349976
16/06/2023,20:20:47.878,-845,195,-257,506,566,0,622,-51,111,26.799999,49.299999,980.349976
16/06/2023,20:20:47.887,-900,193,-203,377,669,-58,625,-58,111,26.799999,49.299999,980.349976
16/06/2023,20:20:47.896,-1013,137,-101,257,640,-118,640,-66,133,26.799999,49.299999,980.349976
16/06/2023,20:20:47.906,-1077,46,-49,230,549,-132,606,-46,145,26.799999,49.299999,980.349976
16/06/2023,20:20:47.915,-1124,-10,-46,386,520,-127,607,-51,157,26.799999,49.299999,980.349976
16/06/2023,20:20:47.933,-1198,-4,-45,706,493,-70,621,-61,151,26.799999,49.299999,980.349976
16/06/2023,20:20:47.943,-1287,54,-14,1128,409,-6,616,-57,162,26.799999,49.299999,980.349976
16/06/2023,20:20:47.953,-1283,37,-56,953,294,-62,631,-57,168,26.799999,49.299999,980.349976
16/06/2023,20:20:47.962,-1249,-67,-162,410,238,-126,627,-61,159,26.799999,49.299999,980.349976
16/06/2023,20:20:47.971,-1221,-209,-214,-230,143,-157,606,-67,193,26.799999,49.299999,980.349976
16/06/2023,20:20:47.981,-1204,-312,-96,-707,44,-154,622,-61,183,26.799999,49.299999,980.349976
16/06/2023,20:20:47.990,-1215,-366,49,-884,-29,-155,607,-55,193,26.799999,49.299999,980.349976
16/06/2023,20:20:48.000,-1263,-342,122,-893,-72,-144,618,-57,187,26.799999,49.299999,980.349976
16/06/2023,20:20:48.009,-1225,-177,159,-893,-72,-144,607,-69,169,26.799999,49.299999,980.349976
16/06/2023,20:20:48.018,-1241,-63,184,-950,-139,-159,613,-72,178,26.799999,49.299999,980.349976
16/06/2023,20:20:48.027,-1474,-103,87,-1159,-249,-373,613,-72,178,26.799999,49.299999,980.349976
16/06/2023,20:20:48.037,-1622,-31,-151,-1159,-249,-373,609,-72,190,26.799999,49.299999,980.349976
16/06/2023,20:20:48.046,-1668,233,-99,-970,-301,-375,585,-58,162,26.799999,49.299999,980.349976
16/06/2023,20:20:48.056,-1603,319,114,-1053,-544,-522,624,-54,162,26.799999,49.299999,980.349976
16/06/2023,20:20:48.065,-1394,114,32,-1382,-1059,-596,612,-61,172,26.799999,49.299999,980.349976
16/06/2023,20:20:48.074,-1396,47,-55,-1496,-1292,-568,607,-43,177,26.799999,49.299999,980.349976
16/06/2023,20:20:48.084,-1404,17,-46,-1519,-1309,-676,610,-60,162,26.799999,49.299999,980.349976
16/06/2023,20:20:48.093,-1182,-279,-218,-1526,-1633,-873,597,-69,156,26.799999,49.299999,980.349976
16/06/2023,20:20:48.103,-1182,-439,-218,-1834,-1694,-792,601,-40,162,26.799999,49.299999,980.349976
16/06/2023,20:20:48.111,-1008,-439,-365,-2152,-1783,-751,601,-40,162,26.799999,49.299999,980.349976
16/06/2023,20:20:48.121,-1012,-304,-339,-1955,-1651,-714,615,-57,108,26.799999,49.299999,980.349976
16/06/2023,20:20:48.134,-1008,-152,-376,-1372,-1380,-532,610,-55,121,26.799999,49.299999,980.349976
16/06/2023,20:20:48.140,-935,-103,-423,-578,-1104,-378,609,-48,108,26.799999,49.299999,980.349976
16/06/2023,20:20:48.149,-922,-144,-355,224,-962,-305,621,-43,97,26.799999,49.299999,980.349976
16/06/2023,20:20:48.159,-1006,-189,-290,587,-830,-245,613,-63,85,26.799999,49.299999,980.349976
16/06/2023,20:20:48.168,-1116,-215,-276,380,-878,-221,607,-52,79,26.799999,49.299999,980.349976
16/06/2023,20:20:48.178,-1177,-193,-403,-777,-748,-127,622,-51,76,26.799999,49.299999,980.349976
16/06/2023,20:20:48.187,-1160,-51,-492,-1864,-853,-25,597,-51,85,26.799999,49.299999,980.349976
16/06/2023,20:20:48.196,-1072,85,-328,-2504,-1049,-19,613,-63,49,26.799999,49.299999,980.349976
16/06/2023,20:20:48.205,-1009,81,-165,-2756,-1179,-99,613,-63,49,26.799999,49.299999,980.349976
16/06/2023,20:20:48.214,-986,67,-155,-2396,-1329,-134,625,-43,36,26.799999,49.299999,980.349976
16/06/2023,20:20:48.224,-962,76,-212,-1756,-1188,-135,630,-37,28,26.799999,49.299999,980.349976
16/06/2023,20:20:48.234,-938,-34,-222,-1310,-962,-69,625,-25,7,26.799999,49.299999,980.349976
16/06/2023,20:20:48.243,-1016,-155,-219,-1544,-877,124,612,-13,22,26.799999,49.299999,980.349976
16/06/2023,20:20:48.252,-1044,-212,-240,-1870,-1115,261,624,-12,-3,26.799999,49.299999,980.349976
16/06/2023,20:20:48.262,-921,-291,-228,-1860,-1296,190,627,-6,-7,26.799999,49.299999,980.349976
16/06/2023,20:20:48.271,-813,-267,-191,-1747,-1206,114,609,10,-13,26.799999,49.299999,980.349976
16/06/2023,20:20:48.281,-833,-183,-163,-1751,-1094,190,619,7,-27,26.799999,49.299999,980.349976
16/06/2023,20:20:48.290,-843,-160,-162,-1754,-1092,173,621,4,-36,26.799999,49.299999,980.349976
16/06/2023,20:20:48.299,-798,-136,-201,-1824,-1091,147,621,4,-36,26.799999,49.299999,980.349976
16/06/2023,20:20:48.308,-837,-100,-242,-1854,-1030,114,586,39,-48,26.799999,49.299999,980.349976
16/06/2023,20:20:48.318,-837,-84,-232,-1809,-956,147,579,61,-63,26.799999,49.299999,980.349976
16/06/2023,20:20:48.327,-783,-70,-207,-1721,-867,205,597,45,-72,26.799999,49.299999,980.349976
16/06/2023,20:20:48.346,-720,78,-139,-1514,-632,199,604,90,-69,26.799999,49.299999,980.349976
16/06/2023,20:20:48.356,-733,157,-111,-1365,-609,180,610,94,-70,26.799999,49.299999,980.349976
16/06/2023,20:20:48.365,-725,176,-65,-1231,-509,185,586,99,-70,26.799999,49.299999,980.349976
16/06/2023,20:20:48.374,-717,209,-42,-1231,-509,185,585,106,-78,26.799999,49.299999,980.349976
16/06/2023,20:20:48.384,-693,255,-25,-1132,-405,208,577,114,-81,26.799999,49.299999,980.349976
16/06/2023,20:20:48.392,-657,254,-7,-1011,-298,211,577,114,-81,26.799999,49.299999,980.349976
16/06/2023,20:20:48.402,-644,239,-46,-975,-245,167,586,132,-57,26.799999,49.299999,980.349976
16/06/2023,20:20:48.412,-683,231,-29,-970,-234,166,585,123,-78,26.799999,49.299999,980.349976
16/06/2023,20:20:48.421,-742,221,16,-874,-298,171,594,124,-63,26.799999,49.299999,980.349976
16/06/2023,20:20:48.430,-742,221,16,-824,-369,129,601,132,-57,26.799999,49.299999,980.349976
16/06/2023,20:20:48.440,-769,264,0,-850,-410,65,604,142,-45,26.799999,49.299999,980.349976
16/06/2023,20:20:48.449,-769,264,0,-801,-353,85,580,160,-51,26.799999,49.400002,980.340027
16/06/2023,20:20:48.459,-752,294,64,-742,-308,102,595,162,-39,26.799999,49.400002,980.340027
16/06/2023,20:20:48.468,-741,271,124,-679,-297,129,577,165,-46,26.799999,49.400002,980.340027
16/06/2023,20:20:48.477,-774,255,182,-614,-328,151,577,165,-46,26.799999,49.400002,980.340027
16/06/2023,20:20:48.486,-826,243,214,-546,-363,160,568,169,-42,26.799999,49.400002,980.340027
16/06/2023,20:20:48.496,-915,239,226,-414,-379,200,565,183,-45,26.799999,49.400002,980.340027
16/06/2023,20:20:48.505,-1039,245,260,-248,-383,232,573,178,-57,26.799999,49.400002,980.340027
16/06/2023,20:20:48.515,-1170,188,364,-156,-430,224,567,183,-51,26.799999,49.400002,980.340027
16/06/2023,20:20:48.524,-1286,148,521,-48,-499,214,552,190,-55,26.799999,49.400002,980.340027
16/06/2023,20:20:48.534,-1366,159,708,69,-519,204,567,171,-37,26.799999,49.400002,980.340027
16/06/2023,20:20:48.543,-1408,139,849,86,-504,193,573,177,-33,26.799999,49.400002,980.340027
16/06/2023,20:20:48.552,-1340,80,840,-26,-474,181,556,189,-54,26.799999,49.400002,980.340027
16/06/2023,20:20:48.561,-1077,16,714,-299,-458,137,556,189,-54,26.799999,49.400002,980.340027
16/06/2023,20:20:48.570,-738,1,553,-679,-461,172,570,166,-40,26.799999,49.400002,980.340027
16/06/2023,20:20:48.580,-477,14,384,-972,-331,240,571,187,-37,26.799999,49.400002,980.340027
16/06/2023,20:20:48.590,-379,47,181,-1053,-27,343,553,201,-46,26.799999,49.400002,980.340027
16/06/2023,20:20:48.599,-586,125,12,-868,167,411,562,190,-36,26.799999,49.400002,980.340027
16/06/2023,20:20:48.609,-1112,223,-163,-492,367,288,558,201,-39,26.799999,49.400002,980.340027
16/06/2023,20:20:48.618,-1739,241,-207,-30,877,198,580,186,-16,26.799999,49.400002,980.340027
16/06/2023,20:20:48.627,-2185,213,-59,528,853,133,592,190,-9,26.799999,49.400002,980.340027
16/06/2023,20:20:48.637,-2141,214,140,830,708,118,591,204,-21,26.799999,49.400002,980.340027
16/06/2023,20:20:48.646,-1804,305,312,581,564,83,598,189,-12,26.799999,49.400002,980.340027
16/06/2023,20:20:48.655,-1558,570,277,265,392,-76,598,189,-12,26.799999,49.400002,980.340027
16/06/2023,20:20:48.664,-1091,748,4,-53,381,-90,594,184,-1,26.799999,49.400002,980.340027
16/06/2023,20:20:48.674,-406,623,-473,78,711,210,604,192,-22,26.799999,49.400002,980.340027
16/06/2023,20:20:48.683,-83,471,-765,728,861,347,616,190,-15,26.799999,49.400002,980.340027
16/06/2023,20:20:48.696,-32,385,-757,1479,777,228,600,168,15,26.799999,49.400002,980.340027
16/06/2023,20:20:48.702,-26,258,-680,2095,890,118,621,192,1,26.799999,49.400002,980.340027
16/06/2023,20:20:48.712,-253,68,-476,2241,1007,72,627,199,-1,26.799999,49.400002,980.340027
16/06/2023,20:20:48.721,-643,-206,-236,2241,1007,72,631,169,7,26.799999,49.400002,980.340027
16/06/2023,20:20:48.730,-1007,-480,-160,1916,997,-19,615,168,12,26.799999,49.400002,980.340027
16/06/2023,20:20:48.740,-1222,-567,-241,1302,1106,-197,643,162,19,26.799999,49.400002,980.340027
16/06/2023,20:20:48.758,-1155,-307,-113,1537,1477,-510,628,157,36,26.799999,49.400002,980.340027
16/06/2023,20:20:48.768,-1133,-252,-127,1822,1459,-453,634,154,36,26.799999,49.400002,980.340027
16/06/2023,20:20:48.777,-1106,-229,-157,1894,1366,-214,637,151,43,26.799999,49.400002,980.340027
16/06/2023,20:20:48.787,-1002,-174,-108,1694,1537,100,633,145,37,26.799999,49.400002,980.340027
16/06/2023,20:20:48.796,-1002,-174,-108,1280,1468,340,658,132,58,26.799999,49.400002,980.340027
16/06/2023,20:20:48.805,-908,-101,-76,815,1170,368,645,136,79,26.799999,49.400002,980.340027
16/06/2023,20:20:48.815,-866,-7,-34,343,841,250,664,126,76,26.799999,49.400002,980.340027
16/06/2023,20:20:48.824,-871,62,-29,-3,611,96,670,132,73,26.799999,49.400002,980.340027
16/06/2023,20:20:48.833,-892,4,-92,-96,689,-10,667,121,75,26.799999,49.400002,980.340027
16/06/2023,20:20:48.842,-980,-154,-46,-213,709,-81,667,121,75,26.799999,49.400002,980.340027
16/06/2023,20:20:48.851,-1080,-314,16,-350,511,-71,679,118,94,26.799999,49.400002,980.340027
16/06/2023,20:20:48.861,-1080,-282,-13,-397,514,56,651,132,82,26.799999,49.400002,980.340027
16/06/2023,20:20:48.871,-1074,-169,31,-246,463,148,651,130,91,26.799999,49.400002,980.340027
16/06/2023,20:20:48.880,-1103,-135,40,-312,446,187,669,129,111,26.799999,49.400002,980.340027
16/06/2023,20:20:48.890,-1001,-21,-76,-423,341,258,667,138,94,26.799999,49.400002,980.340027
16/06/2023,20:20:48.899,-899,144,-113,-270,390,339,672,145,93,26.799999,49.400002,980.340027
16/06/2023,20:20:48.908,-894,198,-38,61,440,385,672,132,99,26.799999,49.400002,980.340027
16/06/2023,20:20:48.918,-867,172,-18,302,418,363,682,130,115,26.799999,49.400002,980.340027
16/06/2023,20:20:48.926,-822,146,-89,476,450,352,682,130,115,26.799999,49.400002,980.340027
16/06/2023,20:20:48.936,-799,166,-177,562,595,353,673,136,126,26.799999,49.400002,980.340027
16/06/2023,20:20:48.946,-808,191,-153,474,624,293,667,138,118,26.799999,49.400002,980.340027
16/06/2023,20:20:48.955,-818,183,-127,337,510,216,681,108,141,26.799999,49.400002,980.340027
16/06/2023,20:20:48.964,-812,134,-167,314,431,154,687,123,139,26.799999,49.400002,980.340027
16/06/2023,20:20:48.974,-806,77,-187,338,429,121,693,96,145,26.799999,49.400002,980.340027
16/06/2023,20:20:48.983,-818,65,-176,344,453,100,685,105,144,26.799999,49.400002,980.340027
16/06/2023,20:20:48.993,-823,71,-187,359,507,75,675,114,145,26.799999,49.400002,980.340027
16/06/2023,20:20:49.002,-843,86,-216,399,599,60,705,114,142,26.799999,49.400002,980.340027
16/06/2023,20:20:49.011,-888,86,-243,411,693,56,688,103,148,26.799999,49.400002,980.340027
16/06/2023,20:20:49.020,-980,69,-242,389,726,32,688,103,148,26.799999,49.400002,980.340027
16/06/2023,20:20:49.029,-1055,33,-215,353,706,51,684,105,166,26.799999,49.400002,980.340027
16/06/2023,20:20:49.039,-1126,6,-173,341,668,47,697,115,157,26.799999,49.400002,980.340027
16/06/2023,20:20:49.049,-1247,35,-96,356,600,33,675,100,150,26.799999,49.400002,980.340027
16/06/2023,20:20:49.058,-1279,88,-2,342,506,0,685,112,168,26.799999,49.400002,980.340027
16/06/2023,20:20:49.068,-1264,143,103,342,506,0,697,91,156,26.799999,49.400002,980.340027
16/06/2023,20:20:49.077,-1269,156,149,277,404,-2,697,115,205,26.799999,49.400002,980.340027
16/06/2023,20:20:49.086,-1264,70,86,192,246,-22,676,84,172,26.799999,49.400002,980.340027
16/06/2023,20:20:49.096,-1276,-61,43,137,109,-44,670,100,178,26.799999,49.400002,980.340027
16/06/2023,20:20:49.105,-1278,-149,72,49,-15,-52,681,94,187,26.799999,49.400002,980.340027
16/06/2023,20:20:49.114,-1267,-157,119,-64,-133,-41,681,94,187,26.799999,49.400002,980.340027
16/06/2023,20:20:49.123,-1267,-157,119,-131,-231,-12,694,94,183,26.799999,49.400002,980.340027
16/06/2023,20:20:49.133,-1279,-37,322,-130,-281,3,681,109,177,26.799999,49.400002,980.340027
16/06/2023,20:20:49.143,-1279,-37,322,-184,-401,-61,684,109,172,26.799999,49.400002,980.340027
16/06/2023,20:20:49.152,-1471,-59,336,-358,-458,-211,678,120,171,26.799999,49.400002,980.340027
16/06/2023,20:20:49.161,-1715,-231,116,-231,-568,-214,681,118,166,26.799999,49.400002,980.340027
16/06/2023,20:20:49.180,-1609,-371,203,-438,-951,-191,696,126,165,26.799999,49.400002,980.340027
16/06/2023,20:20:49.189,-1536,41,231,-689,-1188,-358,694,118,150,26.799999,49.400002,980.340027
16/06/2023,20:20:49.199,-1471,376,141,-1192,-1348,-444,706,142,141,26.799999,49.400002,980.340027
16/06/2023,20:20:49.208,-1339,480,84,-1384,-1516,-632,706,142,141,26.799999,49.400002,980.340027
16/06/2023,20:20:49.217,-1162,152,-147,-1255,-1648,-663,681,138,132,26.799999,49.400002,980.340027
16/06/2023,20:20:49.227,-1035,-383,-444,-956,-1577,-611,670,132,127,26.799999,49.400002,980.340027
16/06/2023,20:20:49.236,-1038,-491,-647,-755,-1488,-462,684,138,115,26.799999,49.400002,980.340027
16/06/2023,20:20:49.246,-1114,-103,-707,-421,-1400,-320,670,151,105,26.799999,49.400002,980.340027
16/06/2023,20:20:49.255,-1119,346,-646,64,-1179,-281,666,159,108,26.799999,49.400002,980.340027
16/06/2023,20:20:49.264,-1113,317,-521,585,-1003,-165,684,156,103,26.799999,49.400002,980.340027
16/06/2023,20:20:49.274,-1151,124,-299,1255,-904,-104,663,153,100,26.799999,49.400002,980.340027
16/06/2023,20:20:49.283,-1179,114,-173,1652,-925,-46,663,163,91,26.799999,49.400002,980.340027
16/06/2023,20:20:49.292,-1189,238,-185,1488,-979,54,663,163,91,26.799999,49.400002,980.340027
16/06/2023,20:20:49.301,-1193,318,-441,-150,-556,346,664,142,82,26.799999,49.400002,980.340027
16/06/2023,20:20:49.311,-1213,295,-513,-2299,-645,569,657,151,85,26.799999,49.400002,980.340027
16/06/2023,20:20:49.321,-1120,181,-129,-2860,-1546,473,673,154,69,26.799999,49.400002,980.340027
16/06/2023,20:20:49.330,-892,44,-39,-2781,-1762,286,654,162,72,26.799999,49.400002,980.340027
16/06/2023,20:20:49.339,-786,-116,-128,-1980,-1532,184,660,166,81,26.799999,49.400002,980.340027
16/06/2023,20:20:49.349,-844,-249,-120,-1306,-1428,88,645,160,75,26.799999,49.400002,980.340027
16/06/2023,20:20:49.358,-870,-153,-228,-1152,-1296,133,661,183,42,26.799999,49.400002,980.340027
16/06/2023,20:20:49.367,-850,-47,-293,-1222,-1196,211,649,178,48,26.799999,49.400002,980.340027
16/06/2023,20:20:49.377,-741,-58,-261,-1242,-1192,102,637,187,69,26.799999,49.400002,980.340027
16/06/2023,20:20:49.386,-645,-79,-185,-1084,-1141,-40,637,187,69,26.799999,49.400002,980.340027
16/06/2023,20:20:49.395,-636,-83,-120,-904,-1010,-85,648,198,33,26.799999,49.400002,980.340027
16/06/2023,20:20:49.405,-652,-86,-102,-803,-868,-51,639,192,39,26.799999,49.400002,980.340027
16/06/2023,20:20:49.414,-693,-61,-150,-803,-868,-51,621,189,42,26.799999,49.400002,980.340027
16/06/2023,20:20:49.424,-705,-56,-193,-857,-728,18,642,204,43,26.799999,49.400002,980.340027
16/06/2023,20:20:49.433,-698,-63,-209,-909,-632,11,639,199,45,26.799999,49.400002,980.340027
16/06/2023,20:20:49.442,-698,-18,-230,-1026,-579,-14,633,204,36,26.799999,49.400002,980.340027
16/06/2023,20:20:49.452,-679,67,-245,-1146,-522,-9,633,207,28,26.799999,49.400002,980.340027
16/06/2023,20:20:49.461,-651,142,-219,-1190,-451,21,625,232,43,26.799999,49.400002,980.340027
16/06/2023,20:20:49.470,-619,175,-172,-1157,-345,23,610,219,57,26.799999,49.400002,980.340027
16/06/2023,20:20:49.479,-619,175,-172,-1061,-274,16,610,219,57,26.799999,49.400002,980.340027
16/06/2023,20:20:49.489,-580,164,-144,-937,-246,19,598,225,36,26.799999,49.400002,980.340027
16/06/2023,20:20:49.499,-566,211,-92,-663,-239,115,612,225,43,26.799999,48.799999,980.349976
16/06/2023,20:20:49.508,-589,249,-26,-417,-226,180,625,235,61,26.799999,48.799999,980.349976
16/06/2023,20:20:49.517,-629,209,-6,-268,-173,198,625,226,55,26.799999,48.799999,980.349976
16/06/2023,20:20:49.527,-634,174,0,-148,-154,209,627,235,66,26.799999,48.799999,980.349976
16/06/2023,20:20:49.536,-590,141,3,-65,-56,190,616,234,51,26.799999,48.799999,980.349976
16/06/2023,20:20:49.545,-613,151,32,50,50,187,634,237,61,26.799999,48.799999,980.349976
16/06/2023,20:20:49.555,-718,162,106,141,146,195,621,234,55,26.799999,48.799999,980.349976
16/06/2023,20:20:49.564,-811,140,168,187,240,194,621,234,55,26.799999,48.799999,980.349976
16/06/2023,20:20:49.582,-890,146,237,206,328,184,628,223,51,26.799999,48.799999,980.349976
16/06/2023,20:20:49.582,-980,211,298,185,365,186,628,223,51,26.799999,48.799999,980.349976
16/06/2023,20:20:49.592,-1081,268,350,124,313,192,618,226,63,26.799999,48.799999,980.349976
16/06/2023,20:20:49.602,-1197,250,422,14,206,193,622,213,45,26.799999,48.799999,980.349976
16/06/2023,20:20:49.611,-1311,180,559,-48,28,210,627,229,37,26.799999,48.799999,980.349976
16/06/2023,20:20:49.620,-1411,126,735,-123,-216,190,631,217,43,26.799999,48.799999,980.349976
16/06/2023,20:20:49.630,-1493,125,874,-4,-456,174,643,225,46,26.799999,48.799999,980.349976
16/06/2023,20:20:49.639,-1482,177,928,200,-575,72,621,220,34,26.799999,48.799999,980.349976
16/06/2023,20:20:49.648,-1275,208,869,347,-502,-44,618,225,37,26.799999,48.799999,980.349976
16/06/2023,20:20:49.657,-923,213,729,324,-276,-70,618,225,37,26.799999,48.799999,980.349976
16/06/2023,20:20:49.667,-620,260,530,121,-46,-46,630,226,19,26.799999,48.799999,980.349976
16/06/2023,20:20:49.680,-514,316,196,-264,127,22,615,210,36,26.799999,48.799999,980.349976
16/06/2023,20:20:49.686,-665,456,-155,-606,133,78,603,232,31,26.799999,48.799999,980.349976
16/06/2023,20:20:49.695,-1091,616,-365,-594,115,-70,628,217,30,26.799999,48.799999,980.349976
16/06/2023,20:20:49.705,-1512,620,-516,-284,497,-193,624,204,30,26.799999,48.799999,980.349976
16/06/2023,20:20:49.714,-1717,418,-559,520,577,-114,627,219,46,26.799999,48.799999,980.349976
16/06/2023,20:20:49.723,-1731,172,-432,1357,498,129,627,217,30,26.799999,48.799999,980.349976
16/06/2023,20:20:49.733,-1635,101,181,1655,386,166,615,225,46,26.799999,48.799999,980.349976
16/06/2023,20:20:49.742,-1554,225,688,1655,386,166,618,213,42,26.799999,48.799999,980.349976
16/06/2023,20:20:49.751,-1349,315,387,1085,79,-56,618,213,42,26.799999,48.799999,980.349976
16/06/2023,20:20:49.760,-817,276,-282,1085,79,-56,640,204,36,26.799999,48.799999,980.349976
16/06/2023,20:20:49.770,-134,136,-728,794,455,105,619,184,0,26.799999,48.799999,980.349976
16/06/2023,20:20:49.780,42,50,-539,909,1059,356,636,180,48,26.799999,48.799999,980.349976
16/06/2023,20:20:49.789,-182,-48,-296,1560,1009,405,636,180,48,26.799999,48.799999,980.349976
16/06/2023,20:20:49.798,-494,-289,-372,1880,765,124,657,189,19,26.799999,48.799999,980.349976
16/06/2023,20:20:49.808,-870,-401,-380,1709,634,-54,639,168,21,26.799999,48.799999,980.349976
16/06/2023,20:20:49.817,-1051,-362,-233,1432,670,-225,655,147,27,26.799999,48.799999,980.349976
16/06/2023,20:20:49.826,-1148,-307,-126,1417,1003,-399,642,166,30,26.799999,48.799999,980.349976
16/06/2023,20:20:49.836,-1148,-307,-126,1711,1516,-486,651,153,33,26.799999,48.799999,980.349976
16/06/2023,20:20:49.845,-1192,-250,-97,1962,1782,-334,651,153,33,26.799999,48.799999,980.349976
16/06/2023,20:20:49.854,-1130,-238,-42,1928,1620,-154,654,151,39,26.799999,48.799999,980.349976
16/06/2023,20:20:49.864,-1127,-227,-29,1760,1418,85,660,157,52,26.799999,48.799999,980.349976
16/06/2023,20:20:49.873,-1067,-113,-30,1305,1637,231,664,138,52,26.799999,48.799999,980.349976
16/06/2023,20:20:49.883,-950,40,24,1043,1337,344,688,109,63,26.799999,48.799999,980.349976
16/06/2023,20:20:49.892,-897,117,44,941,1070,315,669,130,55,26.799999,48.799999,980.349976
16/06/2023,20:20:49.901,-844,115,-18,852,1028,191,681,117,69,26.799999,48.799999,980.349976
16/06/2023,20:20:49.911,-863,26,-74,801,1040,102,691,108,70,26.799999,48.799999,980.349976
16/06/2023,20:20:49.920,-948,-146,-88,646,867,-12,684,97,79,26.799999,48.799999,980.349976
16/06/2023,20:20:49.930,-1042,-295,-64,529,620,-32,687,99,85,26.799999,48.799999,980.349976
16/06/2023,20:20:49.938,-1032,-345,-91,393,616,67,687,99,85,26.799999,48.799999,980.349976
16/06/2023,20:20:49.948,-1010,-254,-101,511,536,190,678,100,88,26.799999,48.799999,980.349976
16/06/2023,20:20:49.958,-977,-159,-61,686,510,221,687,102,82,26.799999,48.799999,980.349976
16/06/2023,20:20:49.967,-933,-105,-66,580,569,207,696,96,93,26.799999,48.799999,980.349976
16/06/2023,20:20:49.976,-978,-22,-52,215,472,215,697,103,90,26.799999,48.799999,980.349976
16/06/2023,20:20:49.995,-955,141,-55,-66,304,209,691,94,105,26.799999,48.799999,980.349976
16/06/2023,20:20:50.004,-896,145,-98,201,336,226,702,96,90,26.799999,48.799999,980.349976
16/06/2023,20:20:50.014,-859,137,-159,479,422,253,697,76,82,26.799999,48.799999,980.349976
16/06/2023,20:20:50.023,-835,114,-193,599,515,252,697,76,82,26.799999,48.799999,980.349976
16/06/2023,20:20:50.032,-826,87,-195,610,564,232,709,85,94,26.799999,48.799999,980.349976
16/06/2023,20:20:50.042,-829,45,-189,618,595,218,703,69,99,26.799999,48.799999,980.349976
16/06/2023,20:20:50.051,-853,0,-214,662,629,202,706,58,106,26.799999,48.799999,980.349976
16/06/2023,20:20:50.061,-894,-14,-250,708,647,194,688,58,111,26.799999,48.799999,980.349976
16/06/2023,20:20:50.070,-905,1,-268,703,654,178,700,64,105,26.799999,48.799999,980.349976
16/06/2023,20:20:50.079,-880,26,-251,649,672,180,694,57,114,26.799999,48.799999,980.349976
16/06/2023,20:20:50.089,-897,55,-193,596,617,129,705,60,115,26.799999,48.799999,980.349976
16/06/2023,20:20:50.098,-915,44,-174,596,617,129,709,57,118,26.799999,48.799999,980.349976
16/06/2023,20:20:50.108,-960,43,-207,543,599,91,723,58,126,26.799999,48.799999,980.349976
16/06/2023,20:20:50.116,-1096,112,-155,467,598,72,723,58,126,26.799999,48.799999,980.349976
16/06/2023,20:20:50.126,-1087,98,-88,419,610,48,717,36,126,26.799999,48.799999,980.349976
16/06/2023,20:20:50.136,-1092,38,-92,395,537,47,706,51,132,26.799999,48.799999,980.349976
16/06/2023,20:20:50.145,-1138,74,-71,372,436,41,714,37,144,26.799999,48.799999,980.349976
16/06/2023,20:20:50.154,-1073,108,-53,363,438,21,708,58,144,26.799999,48.799999,980.349976
16/06/2023,20:20:50.164,-1052,57,-98,316,379,26,717,51,120,26.799999,48.799999,980.349976
16/06/2023,20:20:50.173,-1065,-38,-118,321,356,33,724,36,153,26.799999,48.799999,980.349976
16/06/2023,20:20:50.182,-1065,-38,-118,410,300,35,721,37,136,26.799999,48.799999,980.349976
16/06/2023,20:20:50.192,-1073,-79,-110,395,210,45,703,37,145,26.799999,48.799999,980.349976
16/06/2023,20:20:50.205,-1062,-88,-92,365,143,81,714,58,159,26.799999,48.799999,980.349976
16/06/2023,20:20:50.210,-1074,-107,-66,374,71,131,714,58,159,26.799999,48.799999,980.349976
16/06/2023,20:20:50.220,-1073,-99,-40,467,-59,147,700,43,157,26.799999,48.799999,980.349976
16/06/2023,20:20:50.229,-1120,-27,48,535,-86,182,724,36,145,26.799999,48.799999,980.349976
16/06/2023,20:20:50.239,-1165,55,137,555,-179,187,706,24,133,26.799999,48.799999,980.349976
16/06/2023,20:20:50.248,-1151,24,185,479,-299,153,703,31,132,26.799999,48.799999,980.349976
16/06/2023,20:20:50.257,-1278,-61,80,431,-313,112,703,28,135,26.799999,48.799999,980.349976
16/06/2023,20:20:50.267,-1531,-204,-62,658,-358,165,708,19,141,26.799999,48.799999,980.349976
16/06/2023,20:20:50.276,-1637,-359,60,689,-515,235,714,27,138,26.799999,48.799999,980.349976
16/06/2023,20:20:50.286,-1556,-241,228,448,-672,250,721,3,138,26.799999,48.799999,980.349976
16/06/2023,20:20:50.294,-1492,-16,311,106,-1050,132,721,3,138,26.799999,48.799999,980.349976
16/06/2023,20:20:50.307,-1419,63,226,-205,-1534,9,726,-3,133,26.799999,48.799999,980.349976
16/06/2023,20:20:50.314,-1379,95,-74,-275,-1658,-151,685,10,100,26.799999,48.799999,980.349976
16/06/2023,20:20:50.323,-1398,50,-311,-186,-1696,-234,720,9,96,26.799999,48.799999,980.349976
16/06/2023,20:20:50.332,-1220,98,-495,-116,-1508,-168,685,24,73,26.799999,48.799999,980.349976
16/06/2023,20:20:50.342,-1079,458,-575,-182,-1333,-165,693,15,48,26.799999,48.799999,980.349976
16/06/2023,20:20:50.351,-1124,841,-666,-116,-1278,-155,700,28,40,26.799999,48.799999,980.349976
16/06/2023,20:20:50.360,-1182,843,-703,539,-1033,-115,670,36,66,26.799999,48.799999,980.349976
16/06/2023,20:20:50.370,-1278,587,-505,1461,-979,-122,696,1,39,26.799999,48.799999,980.349976
16/06/2023,20:20:50.379,-1371,436,-381,2170,-1004,-79,696,1,39,26.799999,48.799999,980.349976
16/06/2023,20:20:50.388,-1412,419,-346,2558,-948,35,688,9,31,26.799999,48.799999,980.349976
16/06/2023,20:20:50.398,-1379,405,-332,1866,-868,153,670,10,24,26.799999,48.799999,980.349976
16/06/2023,20:20:50.417,-1164,202,-362,-1726,-1274,344,672,-1,42,26.799999,48.799999,980.349976
16/06/2023,20:20:50.426,-994,145,-190,-2071,-1821,254,660,-7,10,26.799999,48.799999,980.349976
16/06/2023,20:20:50.435,-848,28,-177,-1583,-1713,128,657,10,7,26.799999,48.799999,980.349976
16/06/2023,20:20:50.445,-786,-10,-270,-1034,-1483,-34,640,3,-6,26.799999,48.799999,980.349976
16/06/2023,20:20:50.454,-776,28,-340,-1034,-1483,-34,651,10,-13,26.799999,48.799999,980.349976
16/06/2023,20:20:50.464,-793,68,-379,-723,-1205,-73,634,15,-40,26.799999,48.799999,980.349976
16/06/2023,20:20:50.472,-774,83,-383,-591,-1134,-31,634,15,-40,26.799999,48.799999,980.349976
16/06/2023,20:20:50.482,-807,63,-327,-535,-1155,-130,651,16,-37,26.799999,48.799999,980.349976
16/06/2023,20:20:50.492,-826,10,-267,-471,-1192,-338,621,43,-48,26.799999,48.799999,980.349976
16/06/2023,20:20:50.501,-729,-20,-221,-368,-1140,-424,637,25,-45,26.799999,48.799999,980.349976
16/06/2023,20:20:50.510,-667,-42,-179,-236,-941,-427,601,21,-52,26.799999,48.799999,980.349976
16/06/2023,20:20:50.520,-665,-5,-165,-128,-684,-415,610,33,-52,26.799999,48.799999,980.349976
16/06/2023,20:20:50.529,-665,-5,-165,-52,-543,-390,609,52,-70,26.799999,48.799999,980.349976
16/06/2023,20:20:50.538,-670,67,-165,-6,-444,-346,609,52,-70,26.799999,49.599998,980.349976
16/06/2023,20:20:50.548,-680,114,-157,-4,-388,-359,616,37,-76,26.799999,49.599998,980.299988
16/06/2023,20:20:50.557,-655,111,-168,-7,-348,-325,604,34,-72,26.799999,49.599998,980.299988
16/06/2023,20:20:50.566,-622,79,-176,-9,-251,-233,604,34,-72,26.799999,49.599998,980.299988
16/06/2023,20:20:50.575,-615,81,-171,10,-120,-78,603,64,-51,26.799999,49.599998,980.299988
16/06/2023,20:20:50.585,-640,125,-140,36,-80,-4,595,52,-60,26.799999,49.599998,980.299988
16/06/2023,20:20:50.595,-644,144,-86,55,-139,20,607,30,-70,26.799999,49.599998,980.299988
16/06/2023,20:20:50.604,-613,126,-78,111,-167,42,598,45,-61,26.799999,49.599998,980.299988
16/06/2023,20:20:50.613,-616,100,-77,230,-162,72,591,39,-78,26.799999,49.599998,980.299988
16/06/2023,20:20:50.623,-620,54,-46,393,-121,99,616,18,-85,26.799999,49.599998,980.299988
16/06/2023,20:20:50.632,-610,-10,-7,561,-1,136,600,25,-81,26.799999,49.599998,980.299988
16/06/2023,20:20:50.642,-622,-60,49,737,110,179,595,39,-79,26.799999,49.599998,980.299988
16/06/2023,20:20:50.651,-637,-97,136,921,217,227,607,18,-63,26.799999,49.599998,980.299988
16/06/2023,20:20:50.660,-678,-108,237,1015,325,253,607,18,-63,26.799999,49.599998,980.299988
16/06/2023,20:20:50.672,-707,-85,335,1044,439,253,588,18,-85,26.799999,49.599998,980.299988
16/06/2023,20:20:50.679,-728,-59,434,996,527,284,609,10,-69,26.799999,49.599998,980.299988
16/06/2023,20:20:50.688,-848,-55,566,789,526,317,610,6,-64,26.799999,49.599998,980.299988
16/06/2023,20:20:50.698,-1015,-77,700,524,418,314,609,-6,-67,26.799999,49.599998,980.299988
16/06/2023,20:20:50.707,-1136,-53,732,422,290,299,616,-6,-54,26.799999,49.599998,980.299988
16/06/2023,20:20:50.717,-1242,51,694,470,159,297,604,1,-45,26.799999,49.599998,980.299988
16/06/2023,20:20:50.726,-1330,132,656,601,64,278,604,-19,-28,26.799999,49.599998,980.299988
16/06/2023,20:20:50.735,-1371,172,620,757,24,201,615,-9,-52,26.799999,49.599998,980.299988
16/06/2023,20:20:50.745,-1416,214,676,923,14,142,606,-25,-64,26.799999,49.599998,980.299988
16/06/2023,20:20:50.753,-1380,267,694,904,-160,4,606,-25,-64,26.799999,49.599998,980.299988
16/06/2023,20:20:50.763,-1187,317,576,864,-202,-67,597,-22,-61,26.799999,49.599998,980.299988
16/06/2023,20:20:50.776,-916,338,432,725,-90,-72,615,-31,-48,26.799999,49.599998,980.299988
16/06/2023,20:20:50.782,-651,365,299,471,3,-64,613,-30,-55,26.799999,49.599998,980.299988
16/06/2023,20:20:50.791,-498,418,202,191,74,-63,612,-27,-61,26.799999,49.599998,980.299988
16/06/2023,20:20:50.801,-494,382,51,191,74,-63,610,-28,-54,26.799999,49.599998,980.299988
16/06/2023,20:20:50.810,-759,387,-39,-45,122,-97,609,-34,-49,26.799999,49.599998,980.299988
16/06/2023,20:20:50.820,-1199,377,-233,-94,-11,-223,618,-34,-52,26.799999,49.599998,980.299988
16/06/2023,20:20:50.856,-2003,-132,208,1545,317,-23,591,-42,-15,26.799999,49.599998,980.299988
16/06/2023,20:20:50.866,-1523,-104,385,1222,533,69,625,-55,-33,26.799999,49.599998,980.299988
16/06/2023,20:20:50.876,-1132,166,246,1130,316,-14,621,-55,-31,26.799999,49.599998,980.299988
16/06/2023,20:20:50.885,-700,381,-114,917,270,-11,639,-45,-34,26.799999,49.599998,980.299988
16/06/2023,20:20:50.895,-401,303,-284,654,219,-16,619,-48,-25,26.799999,49.599998,980.299988
16/06/2023,20:20:50.907,-342,49,-340,837,163,-105,624,-66,-25,26.799999,49.599998,980.299988
16/06/2023,20:20:50.913,-451,-238,-431,1253,347,-67,618,-64,-1,26.799999,49.599998,980.299988
16/06/2023,20:20:50.923,-734,-393,-398,1525,700,20,639,-82,-31,26.799999,49.599998,980.299988
16/06/2023,20:20:50.932,-953,-388,-252,1581,886,10,634,-73,-1,26.799999,49.599998,980.299988
16/06/2023,20:20:50.941,-1025,-329,-212,1782,997,-43,630,-69,9,26.799999,49.599998,980.299988
16/06/2023,20:20:50.950,-1059,-302,-265,2116,1228,-131,630,-69,9,26.799999,49.599998,980.299988
16/06/2023,20:20:50.959,-1102,-332,-264,2225,1421,-76,634,-94,15,26.799999,49.599998,980.299988
16/06/2023,20:20:50.969,-1114,-318,-200,2062,1343,8,628,-97,42,26.799999,49.599998,980.299988
16/06/2023,20:20:50.979,-1055,-268,-161,1943,1163,91,651,-96,34,26.799999,49.599998,980.299988
16/06/2023,20:20:50.988,-1020,-180,-205,1843,1100,212,654,-106,69,26.799999,49.599998,980.299988
16/06/2023,20:20:50.998,-982,0,-229,1780,1221,405,663,-100,58,26.799999,49.599998,980.299988
16/06/2023,20:20:51.007,-855,173,-179,1825,1251,505,651,-118,85,26.799999,49.599998,980.299988
16/06/2023,20:20:51.016,-707,307,-143,1660,1425,357,670,-124,100,26.799999,49.599998,980.299988
16/06/2023,20:20:51.026,-763,301,-134,1565,1197,119,649,-130,117,26.799999,49.599998,980.299988
16/06/2023,20:20:51.035,-941,126,-160,1486,959,-5,657,-144,135,26.799999,49.599998,980.299988
16/06/2023,20:20:51.044,-1037,-21,-203,1342,812,43,657,-144,135,26.799999,49.599998,980.299988
16/06/2023,20:20:51.057,-1008,-149,-199,1304,680,34,678,-144,136,26.799999,49.599998,980.299988
16/06/2023,20:20:51.063,-1009,-285,-238,1167,688,63,646,-153,148,26.799999,49.599998,980.299988
16/06/2023,20:20:51.073,-1036,-261,-209,1164,592,113,651,-142,156,26.799999,49.599998,980.299988
16/06/2023,20:20:51.082,-978,-151,-110,1253,588,105,666,-151,151,26.799999,49.599998,980.299988
16/06/2023,20:20:51.091,-966,-118,-69,1239,585,144,675,-144,169,26.799999,49.599998,980.299988
16/06/2023,20:20:51.101,-980,-127,-14,1152,509,159,657,-145,175,26.799999,49.599998,980.299988
16/06/2023,20:20:51.110,-977,-154,8,1027,436,136,664,-127,192,26.799999,49.599998,980.299988
16/06/2023,20:20:51.119,-1002,-178,5,797,294,81,669,-147,163,26.799999,49.599998,980.299988
16/06/2023,20:20:51.128,-995,-140,-19,554,161,105,669,-147,163,26.799999,49.599998,980.299988
16/06/2023,20:20:51.138,-932,-62,-59,487,92,102,660,-162,184,26.799999,49.599998,980.299988
16/06/2023,20:20:51.147,-895,-50,-79,487,92,102,664,-142,195,26.799999,49.599998,980.299988
16/06/2023,20:20:51.157,-927,-77,-58,558,109,83,645,-142,216,26.799999,49.599998,980.299988
16/06/2023,20:20:51.166,-967,-124,-63,656,151,78,645,-142,216,26.799999,49.599998,980.299988
16/06/2023,20:20:51.176,-956,-170,-126,721,171,77,676,-159,208,26.799999,49.599998,980.299988
16/06/2023,20:20:51.185,-932,-140,-201,737,243,103,648,-157,217,26.799999,49.599998,980.299988
16/06/2023,20:20:51.194,-906,-71,-237,717,300,122,639,-154,216,26.799999,49.599998,980.299988
16/06/2023,20:20:51.204,-850,-6,-245,709,295,123,657,-153,225,26.799999,49.599998,980.299988
16/06/2023,20:20:51.213,-808,82,-258,710,235,105,648,-135,208,26.799999,49.599998,980.299988
16/06/2023,20:20:51.222,-808,82,-258,683,304,72,648,-135,208,26.799999,49.599998,980.299988
16/06/2023,20:20:51.231,-818,69,-257,679,356,7,643,-157,232,26.799999,49.599998,980.299988
16/06/2023,20:20:51.241,-892,-74,-270,577,391,13,670,-157,213,26.799999,49.599998,980.299988
16/06/2023,20:20:51.251,-953,-109,-269,458,452,16,654,-147,246,26.799999,49.599998,980.299988
16/06/2023,20:20:51.269,-1006,-5,-246,461,501,-14,660,-135,267,26.799999,49.599998,980.299988
16/06/2023,20:20:51.279,-1101,92,-201,462,487,-22,643,-153,228,26.799999,49.599998,980.299988
16/06/2023,20:20:51.288,-1122,150,-160,535,436,-68,651,-142,250,26.799999,49.599998,980.299988
16/06/2023,20:20:51.297,-1158,180,-65,571,423,-75,648,-153,265,26.799999,49.599998,980.299988
16/06/2023,20:20:51.307,-1182,157,9,590,434,-63,642,-142,273,26.799999,49.599998,980.299988
16/06/2023,20:20:51.316,-1130,-39,-148,749,403,-33,642,-142,273,26.799999,49.599998,980.299988
16/06/2023,20:20:51.325,-1156,-204,-211,899,226,-8,652,-142,297,26.799999,49.599998,980.299988
16/06/2023,20:20:51.335,-1212,-224,-41,687,114,20,652,-142,297,26.799999,49.599998,980.299988
16/06/2023,20:20:51.344,-1215,-195,6,454,53,52,661,-141,273,26.799999,49.599998,980.299988
16/06/2023,20:20:51.354,-1202,-145,-5,378,-68,93,657,-135,285,26.799999,49.599998,980.299988
16/06/2023,20:20:51.363,-1225,-100,123,278,-197,109,652,-136,265,26.799999,49.599998,980.299988
16/06/2023,20:20:51.372,-1281,-50,238,45,-374,82,646,-139,286,26.799999,49.599998,980.299988
16/06/2023,20:20:51.382,-1270,-43,256,56,-413,86,651,-142,288,26.799999,49.599998,980.299988
16/06/2023,20:20:51.391,-1252,-132,130,259,-304,92,643,-142,253,26.799999,49.599998,980.299988
16/06/2023,20:20:51.400,-1354,-186,-90,651,-209,101,643,-142,253,26.799999,49.599998,980.299988
