dd/mm/yyyy,hh:mm:ss.ms,accX[mg],accY[mg],accZ[mg],gyroX[mdps],gyroY[mdps],gyroZ[mdps],magX[mG],magY[mG],magZ[mG],T[degC],rH[%],Press[hPa],
16/06/2023,18:41:05.621,-981,-61,40,-8,-9,0,709,60,477,27.299999,47.599998,978.979980
16/06/2023,18:41:05.622,-981,-61,40,-8,-9,0,709,60,477,27.299999,47.599998,978.979980
16/06/2023,18:41:05.622,-981,-61,40,-8,-9,0,709,60,477,27.299999,47.599998,978.979980
16/06/2023,18:41:05.623,-981,-61,40,-8,-9,0,709,60,477,27.299999,47.599998,978.979980
16/06/2023,18:41:05.623,-981,-61,40,-8,-9,0,709,60,477,27.299999,47.599998,978.979980
16/06/2023,18:41:05.627,-981,-61,40,-8,-9,0,709,60,477,27.299999,47.599998,978.979980
16/06/2023,18:41:05.627,-981,-61,40,-8,-9,0,709,60,477,27.299999,47.599998,978.979980
16/06/2023,18:41:05.628,-981,-61,40,-8,-9,0,709,60,477,27.299999,47.599998,978.979980
16/06/2023,18:41:05.629,-981,-61,40,-8,-9,0,709,60,477,27.299999,47.599998,978.979980
16/06/2023,18:41:05.629,-981,-61,40,-8,-9,0,709,60,477,27.299999,47.599998,978.979980
16/06/2023,18:41:05.630,-980,-66,40,-8,-9,0,709,60,477,27.299999,47.599998,978.979980
16/06/2023,18:41:05.640,-980,-69,40,-2,-10,-2,717,61,516,27.299999,47.599998,978.979980
16/06/2023,18:41:05.649,-981,-69,39,1,-9,-4,726,37,478,27.299999,47.599998,978.979980
16/06/2023,18:41:05.659,-981,-68,38,3,-9,-4,711,43,493,27.299999,47.599998,978.979980
16/06/2023,18:41:05.668,-982,-66,36,5,-9,-4,693,61,484,27.299999,47.599998,978.979980
16/06/2023,18:41:05.677,-983,-68,36,7,-6,-4,709,49,486,27.299999,47.599998,978.979980
16/06/2023,18:41:05.690,-983,-69,36,5,-4,-3,730,52,480,27.299999,47.599998,978.979980
16/06/2023,18:41:05.696,-982,-67,37,4,-1,-4,724,57,484,27.299999,47.599998,978.979980
16/06/2023,18:41:05.706,-982,-66,38,3,-2,-3,720,37,474,27.299999,47.599998,978.979980
16/06/2023,18:41:05.714,-983,-67,38,1,-2,-3,720,37,474,27.299999,47.599998,978.979980
16/06/2023,18:41:05.724,-981,-71,37,0,-2,-3,709,39,496,27.299999,47.599998,978.979980
16/06/2023,18:41:05.734,-981,-72,39,0,-2,-3,715,69,481,27.299999,47.599998,978.979980
16/06/2023,18:41:05.743,-980,-72,39,1,-3,-3,721,51,493,27.299999,47.599998,978.979980
16/06/2023,18:41:05.752,-979,-71,37,2,-5,-2,711,60,483,27.299999,47.599998,978.979980
16/06/2023,18:41:05.762,-983,-70,39,3,-6,-3,714,46,472,27.299999,47.599998,978.979980
16/06/2023,18:41:05.771,-984,-69,39,5,-8,-1,706,39,480,27.299999,47.599998,978.979980
16/06/2023,18:41:05.780,-983,-69,37,5,-9,-1,723,43,471,27.299999,47.599998,978.979980
16/06/2023,18:41:05.790,-983,-69,38,4,-9,-2,721,45,469,27.299999,47.599998,978.979980
16/06/2023,18:41:05.799,-981,-68,37,2,-11,-2,711,52,502,27.299999,47.599998,978.979980
16/06/2023,18:41:05.808,-981,-69,35,0,-10,-3,711,52,502,27.299999,47.599998,978.979980
16/06/2023,18:41:05.817,-983,-68,33,-1,-8,-3,714,46,471,27.299999,47.599998,978.979980
16/06/2023,18:41:05.827,-982,-68,32,-2,-8,-3,732,55,474,27.299999,47.599998,978.979980
16/06/2023,18:41:05.837,-981,-68,34,-3,-8,-2,720,43,474,27.299999,47.599998,978.979980
16/06/2023,18:41:05.845,-981,-67,35,-2,-7,-2,736,52,471,27.299999,47.599998,978.979980
16/06/2023,18:41:05.855,-983,-67,32,-2,-6,-1,711,58,486,27.299999,47.599998,978.979980
16/06/2023,18:41:05.865,-981,-66,31,-1,-4,-1,721,46,484,27.299999,47.599998,978.979980
16/06/2023,18:41:05.874,-979,-66,31,-1,-4,-1,724,64,471,27.299999,47.599998,978.979980
16/06/2023,18:41:05.884,-981,-64,33,0,-4,-2,712,63,481,27.299999,47.599998,978.979980
16/06/2023,18:41:05.893,-982,-63,34,0,-3,-3,718,48,483,27.299999,47.599998,978.979980
16/06/2023,18:41:05.902,-982,-62,32,1,-3,-3,718,48,483,27.299999,47.599998,978.979980
16/06/2023,18:41:05.911,-981,-64,31,2,-3,-3,705,37,478,27.299999,47.599998,978.979980
16/06/2023,18:41:05.921,-983,-64,31,2,-4,-4,727,55,472,27.299999,47.599998,978.979980
16/06/2023,18:41:05.930,-983,-67,32,3,-4,-4,706,64,487,27.299999,47.599998,978.979980
16/06/2023,18:41:05.940,-982,-68,33,3,-4,-4,703,58,478,27.299999,47.599998,978.979980
16/06/2023,18:41:05.949,-982,-68,33,3,-3,-4,709,42,480,27.299999,47.599998,978.979980
16/06/2023,18:41:05.958,-979,-66,34,4,-3,-6,706,52,463,27.299999,47.599998,978.979980
16/06/2023,18:41:05.968,-978,-70,33,6,-4,-6,708,39,481,27.299999,47.599998,978.979980
16/06/2023,18:41:05.977,-982,-70,33,7,-4,-5,724,48,495,27.299999,47.599998,978.979980
16/06/2023,18:41:05.987,-986,-69,31,8,-5,-6,730,55,475,27.299999,47.599998,978.979980
16/06/2023,18:41:05.995,-985,-69,31,9,-5,-6,730,55,475,27.299999,47.599998,978.979980
16/06/2023,18:41:06.005,-984,-68,31,10,-5,-6,723,16,466,27.299999,47.599998,978.979980
16/06/2023,18:41:06.015,-981,-67,30,11,-6,-6,726,43,462,27.299999,47.599998,978.979980
16/06/2023,18:41:06.024,-979,-65,31,12,-3,-6,717,49,468,27.299999,47.599998,978.979980
16/06/2023,18:41:06.033,-976,-67,31,11,-3,-4,720,49,471,27.299999,47.599998,978.979980
16/06/2023,18:41:06.043,-977,-68,33,11,-2,-4,706,46,478,27.299999,47.599998,978.979980
16/06/2023,18:41:06.052,-981,-69,35,9,-2,-3,736,48,462,27.299999,47.599998,978.979980
16/06/2023,18:41:06.062,-983,-72,36,8,-1,-2,708,54,484,27.299999,47.599998,978.979980
16/06/2023,18:41:06.074,-986,-74,36,5,-2,-4,714,57,475,27.299999,47.599998,978.979980
16/06/2023,18:41:06.080,-986,-75,36,2,-2,-4,715,61,478,27.299999,47.599998,978.979980
16/06/2023,18:41:06.089,-984,-75,36,1,-4,-3,715,61,478,27.299999,47.599998,978.979980
16/06/2023,18:41:06.098,-982,-74,35,0,-3,-4,721,46,478,27.299999,47.599998,978.979980
16/06/2023,18:41:06.108,-981,-75,33,0,-5,-5,717,66,487,27.299999,47.599998,978.979980
16/06/2023,18:41:06.118,-982,-73,33,0,-5,-4,724,61,481,27.299999,47.599998,978.979980
16/06/2023,18:41:06.127,-982,-71,33,-2,-7,-3,723,48,465,27.299999,47.599998,978.979980
16/06/2023,18:41:06.136,-984,-71,31,-4,-6,-2,720,43,484,27.299999,47.599998,978.979980
16/06/2023,18:41:06.146,-985,-72,30,-8,-6,-2,718,43,465,27.299999,47.599998,978.979980
16/06/2023,18:41:06.155,-985,-72,29,-12,-5,-1,714,40,481,27.299999,47.599998,978.979980
16/06/2023,18:41:06.165,-986,-70,30,-14,-7,-1,727,60,489,27.299999,47.599998,978.979980
16/06/2023,18:41:06.174,-988,-69,31,-12,-9,-2,718,36,472,27.299999,47.599998,978.979980
16/06/2023,18:41:06.183,-991,-67,28,-7,-14,-3,718,36,472,27.299999,47.599998,978.979980
16/06/2023,18:41:06.192,-993,-63,27,-3,-18,-4,714,48,484,27.299999,47.599998,978.979980
16/06/2023,18:41:06.202,-995,-60,26,0,-24,-5,706,42,463,27.299999,47.599998,978.979980
16/06/2023,18:41:06.211,-1000,-55,24,0,-29,-7,726,30,481,27.299999,47.599998,978.979980
16/06/2023,18:41:06.221,-998,-50,25,0,-29,-7,705,54,483,27.299999,47.599998,978.979980
16/06/2023,18:41:06.230,-988,-50,28,-3,-36,-8,730,49,480,27.299999,47.599998,978.979980
16/06/2023,18:41:06.240,-981,-53,33,-11,-44,-9,720,49,475,27.299999,47.599998,978.979980
16/06/2023,18:41:06.249,-982,-53,43,-21,-47,-10,726,54,474,27.299999,47.599998,978.979980
16/06/2023,18:41:06.258,-991,-56,55,-34,-50,-11,730,49,489,27.299999,47.599998,978.979980
16/06/2023,18:41:06.268,-997,-67,61,-47,-51,-12,709,52,478,27.299999,47.599998,978.979980
16/06/2023,18:41:06.276,-997,-67,61,-59,-55,-11,709,52,478,27.299999,47.599998,978.979980
16/06/2023,18:41:06.286,-998,-81,68,-63,-62,-11,721,73,462,27.299999,47.599998,978.979980
16/06/2023,18:41:06.296,-1002,-95,78,-60,-75,-11,714,57,472,27.299999,47.599998,978.979980
16/06/2023,18:41:06.305,-1009,-106,96,-49,-90,-10,720,49,474,27.299999,47.599998,978.979980
16/06/2023,18:41:06.315,-1021,-120,124,-45,-104,-9,732,51,469,27.299999,47.599998,978.979980
16/06/2023,18:41:06.324,-1038,-136,141,-45,-127,-5,721,46,472,27.299999,47.599998,978.979980
16/06/2023,18:41:06.333,-1050,-153,145,-39,-166,5,721,43,475,27.299999,47.599998,978.979980
16/06/2023,18:41:06.343,-1052,-169,148,-37,-223,20,717,48,468,27.299999,47.599998,978.979980
16/06/2023,18:41:06.352,-1051,-175,151,-43,-271,28,706,48,480,27.299999,47.599998,978.979980
16/06/2023,18:41:06.361,-1049,-177,159,-70,-312,44,706,48,480,27.299999,47.599998,978.979980
16/06/2023,18:41:06.370,-1038,-192,175,-112,-353,69,718,55,457,27.299999,47.599998,978.979980
16/06/2023,18:41:06.380,-1027,-212,195,-161,-383,103,714,52,459,27.299999,47.599998,978.979980
16/06/2023,18:41:06.393,-1019,-226,235,-221,-445,133,732,48,475,27.299999,47.599998,978.979980
16/06/2023,18:41:06.399,-998,-229,284,-318,-512,174,723,45,460,27.299999,47.599998,978.979980
16/06/2023,18:41:06.408,-984,-210,319,-371,-569,204,723,45,460,27.299999,47.599998,978.979980
16/06/2023,18:41:06.418,-974,-181,329,-393,-606,220,739,36,445,27.299999,47.599998,978.979980
16/06/2023,18:41:06.427,-965,-136,293,-376,-659,252,744,43,433,27.299999,47.599998,978.979980
16/06/2023,18:41:06.436,-960,-79,257,-348,-653,253,727,30,432,27.299999,47.599998,978.979980
16/06/2023,18:41:06.446,-959,-36,235,-322,-618,247,735,48,426,27.299999,47.599998,978.979980
16/06/2023,18:41:06.454,-970,-15,227,-318,-569,222,735,48,426,27.299999,47.599998,978.979980
16/06/2023,18:41:06.464,-974,-13,238,-345,-549,182,750,46,411,27.299999,47.599998,978.979980
16/06/2023,18:41:06.474,-988,-23,252,-402,-523,132,732,25,405,27.299999,47.599998,978.979980
16/06/2023,18:41:06.483,-1002,-32,246,-440,-516,88,726,18,411,27.299999,47.599998,978.979980
16/06/2023,18:41:06.493,-998,-50,234,-450,-500,53,732,16,405,27.299999,47.599998,978.979980
16/06/2023,18:41:06.502,-989,-75,208,-469,-492,41,753,28,420,27.299999,47.599998,978.979980
16/06/2023,18:41:06.511,-959,-82,204,-439,-463,68,738,12,409,27.299999,47.599998,978.979980
16/06/2023,18:41:06.521,-928,-79,209,-417,-420,88,747,9,403,27.299999,47.599998,978.979980
16/06/2023,18:41:06.530,-899,-63,196,-402,-378,99,726,21,406,27.299999,47.599998,978.979980
16/06/2023,18:41:06.539,-831,-44,199,-357,-353,109,738,9,423,27.299999,47.599998,978.979980
16/06/2023,18:41:06.548,-770,-45,177,-298,-294,92,738,9,423,27.299999,47.599998,978.979980
16/06/2023,18:41:06.557,-743,-49,182,-241,-226,79,744,16,415,27.299999,47.599998,978.979980
16/06/2023,18:41:06.567,-696,-24,251,-241,-226,79,741,-4,402,27.299999,47.599998,978.979980
16/06/2023,18:41:06.577,-748,-75,256,-176,-169,38,738,19,390,26.100000,50.200001,979.400024
16/06/2023,18:41:06.586,-840,-162,243,-121,-60,24,736,9,388,26.100000,50.200001,979.400024
16/06/2023,18:41:06.596,-853,-167,287,-54,-5,36,727,4,403,26.100000,50.200001,979.400024
16/06/2023,18:41:06.605,-859,-157,307,-33,22,41,744,13,385,26.100000,50.200001,979.400024
16/06/2023,18:41:06.614,-869,-148,323,-32,46,43,760,-4,394,26.100000,50.200001,979.400024
16/06/2023,18:41:06.624,-888,-149,339,-30,59,43,756,18,373,26.100000,50.200001,979.400024
16/06/2023,18:41:06.632,-888,-149,339,-29,63,45,756,18,373,26.100000,50.200001,979.400024
16/06/2023,18:41:06.642,-902,-154,349,-31,56,49,718,9,402,26.100000,50.200001,979.400024
16/06/2023,18:41:06.652,-911,-139,351,-37,51,49,744,4,393,26.100000,50.200001,979.400024
16/06/2023,18:41:06.661,-916,-131,362,-19,33,43,742,7,396,26.100000,50.200001,979.400024
16/06/2023,18:41:06.671,-924,-136,373,-3,26,44,733,-13,373,26.100000,50.200001,979.400024
16/06/2023,18:41:06.680,-938,-133,378,8,27,58,730,12,387,26.100000,50.200001,979.400024
16/06/2023,18:41:06.689,-938,-113,381,9,28,83,733,-1,376,26.100000,50.200001,979.400024
16/06/2023,18:41:06.699,-925,-79,391,-25,33,99,729,6,388,26.100000,50.200001,979.400024
16/06/2023,18:41:06.708,-914,-35,402,-87,37,105,724,6,400,26.100000,50.200001,979.400024
16/06/2023,18:41:06.717,-904,-16,410,-140,33,97,724,6,400,26.100000,50.200001,979.400024
16/06/2023,18:41:06.726,-892,-20,411,-200,22,81,753,4,403,26.100000,50.200001,979.400024
16/06/2023,18:41:06.736,-891,-21,416,-201,6,77,744,-6,400,26.100000,50.200001,979.400024
16/06/2023,18:41:06.745,-879,-33,419,-190,-22,54,747,4,396,26.100000,50.200001,979.400024
16/06/2023,18:41:06.755,-862,-55,405,-152,-33,43,721,-3,409,26.100000,50.200001,979.400024
16/06/2023,18:41:06.764,-861,-82,401,-116,-29,42,732,7,391,26.100000,50.200001,979.400024
16/06/2023,18:41:06.774,-870,-115,411,-93,-28,43,750,3,400,26.100000,50.200001,979.400024
16/06/2023,18:41:06.783,-880,-135,419,-85,-33,43,744,-6,391,26.100000,50.200001,979.400024
16/06/2023,18:41:06.792,-888,-136,419,-103,-45,43,742,-9,391,26.100000,50.200001,979.400024
16/06/2023,18:41:06.802,-896,-128,416,-136,-62,44,756,-12,382,26.100000,50.200001,979.400024
16/06/2023,18:41:06.810,-901,-119,417,-188,-78,42,756,-12,382,26.100000,50.200001,979.400024
16/06/2023,18:41:06.820,-894,-117,420,-222,-95,40,739,-9,382,26.100000,50.200001,979.400024
16/06/2023,18:41:06.830,-885,-113,423,-275,-120,37,748,-18,391,26.100000,50.200001,979.400024
16/06/2023,18:41:06.839,-882,-115,429,-351,-151,27,732,-4,385,26.100000,50.200001,979.400024
16/06/2023,18:41:06.849,-870,-121,417,-410,-190,14,727,-10,391,26.100000,50.200001,979.400024
16/06/2023,18:41:06.858,-851,-134,400,-435,-213,1,750,-1,391,26.100000,50.200001,979.400024
16/06/2023,18:41:06.867,-853,-124,375,-399,-240,-2,741,0,406,26.100000,50.200001,979.400024
16/06/2023,18:41:06.877,-896,-151,369,-304,-206,4,756,-13,381,26.100000,50.200001,979.400024
16/06/2023,18:41:06.886,-967,-203,408,-304,-206,4,741,-24,391,26.100000,50.200001,979.400024
16/06/2023,18:41:06.895,-1016,-189,429,-201,-161,78,744,-3,372,26.100000,50.200001,979.400024
16/06/2023,18:41:06.904,-1020,-141,381,-36,-71,122,744,-3,372,26.100000,50.200001,979.400024
16/06/2023,18:41:06.914,-1006,-62,369,-36,-71,122,745,-22,384,26.100000,50.200001,979.400024
16/06/2023,18:41:06.923,-995,51,401,46,-26,156,756,-13,376,26.100000,50.200001,979.400024
16/06/2023,18:41:06.933,-977,173,464,68,-6,189,745,-18,375,26.100000,50.200001,979.400024
16/06/2023,18:41:06.942,-983,282,523,84,9,198,741,-22,376,26.100000,50.200001,979.400024
16/06/2023,18:41:06.952,-997,292,529,22,-8,164,735,-42,394,26.100000,50.200001,979.400024
16/06/2023,18:41:06.964,-1000,158,512,-98,-35,81,738,-12,384,26.100000,50.200001,979.400024
16/06/2023,18:41:06.970,-1054,8,358,-187,-42,31,736,-22,394,26.100000,50.200001,979.400024
16/06/2023,18:41:06.980,-1054,-118,144,-187,12,98,735,-24,372,26.100000,50.200001,979.400024
16/06/2023,18:41:06.988,-1114,-118,144,-44,190,55,735,-24,372,26.100000,50.200001,979.400024
16/06/2023,18:41:06.998,-984,-179,66,127,311,-12,757,-27,367,26.100000,50.200001,979.400024
16/06/2023,18:41:07.008,-794,-120,-12,344,400,-44,741,-19,370,26.100000,50.200001,979.400024
16/06/2023,18:41:07.017,-752,-39,-67,625,566,-111,751,-24,379,26.100000,50.200001,979.400024
16/06/2023,18:41:07.027,-807,31,-47,856,721,-235,735,-28,378,26.100000,50.200001,979.400024
16/06/2023,18:41:07.036,-935,77,-86,1058,931,-380,741,-25,400,26.100000,50.200001,979.400024
16/06/2023,18:41:07.045,-1034,63,-110,1190,1089,-487,730,-34,406,26.100000,50.200001,979.400024
16/06/2023,18:41:07.055,-1057,20,-124,1226,1138,-505,741,-16,408,26.100000,50.200001,979.400024
16/06/2023,18:41:07.064,-1004,7,-161,1149,1107,-454,750,12,441,26.100000,50.200001,979.400024
16/06/2023,18:41:07.073,-911,48,-228,946,1007,-419,721,0,436,26.100000,50.200001,979.400024
16/06/2023,18:41:07.082,-849,91,-294,668,950,-464,721,0,436,26.100000,50.200001,979.400024
16/06/2023,18:41:07.092,-809,109,-314,451,949,-538,741,-9,453,26.100000,50.200001,979.400024
16/06/2023,18:41:07.101,-790,74,-276,308,1016,-603,742,-1,454,26.100000,50.200001,979.400024
16/06/2023,18:41:07.111,-807,-4,-192,189,1043,-590,739,4,460,26.100000,50.200001,979.400024
16/06/2023,18:41:07.120,-859,-44,-140,167,1021,-505,727,25,462,26.100000,50.200001,979.400024
16/06/2023,18:41:07.130,-913,-90,-88,308,1050,-452,717,12,499,26.100000,50.200001,979.400024
16/06/2023,18:41:07.139,-946,-164,-32,391,1064,-417,723,21,489,26.100000,50.200001,979.400024
16/06/2023,18:41:07.148,-952,-254,-35,414,1045,-364,703,27,507,26.100000,50.200001,979.400024
16/06/2023,18:41:07.158,-956,-343,-82,474,1002,-269,705,25,498,26.100000,50.200001,979.400024
16/06/2023,18:41:07.167,-1010,-380,-116,561,1016,-176,703,37,520,26.100000,50.200001,979.400024
16/06/2023,18:41:07.176,-1066,-375,-131,741,1006,-121,703,37,520,26.100000,50.200001,979.400024
16/06/2023,18:41:07.185,-1105,-361,-160,993,1081,-17,706,31,505,26.100000,50.200001,979.400024
16/06/2023,18:41:07.195,-1148,-357,-157,1184,1204,170,708,39,534,26.100000,50.200001,979.400024
16/06/2023,18:41:07.205,-1178,-345,-80,1226,1177,394,690,46,531,26.100000,50.200001,979.400024
16/06/2023,18:41:07.217,-1150,-331,2,1100,857,517,688,37,514,26.100000,50.200001,979.400024
16/06/2023,18:41:07.223,-1042,-327,22,864,630,493,684,49,546,26.100000,50.200001,979.400024
16/06/2023,18:41:07.233,-948,-320,6,635,578,391,684,48,537,26.100000,50.200001,979.400024
16/06/2023,18:41:07.242,-920,-321,12,498,565,248,681,49,559,26.100000,50.200001,979.400024
16/06/2023,18:41:07.251,-920,-339,50,498,565,248,675,33,550,26.100000,50.200001,979.400024
16/06/2023,18:41:07.261,-950,-320,101,444,573,170,684,31,558,26.100000,50.200001,979.400024
16/06/2023,18:41:07.270,-1003,-248,137,453,531,137,684,31,558,26.100000,50.200001,979.400024
16/06/2023,18:41:07.279,-1029,-168,118,409,501,136,693,34,547,26.100000,50.200001,979.400024
16/06/2023,18:41:07.289,-1025,-152,54,285,443,122,669,45,558,26.100000,50.200001,979.400024
16/06/2023,18:41:07.298,-1024,-193,-3,208,363,104,660,36,568,26.100000,50.200001,979.400024
16/06/2023,18:41:07.307,-1024,-193,-3,174,312,117,672,55,567,26.100000,50.200001,979.400024
16/06/2023,18:41:07.317,-977,-192,-97,164,285,129,666,45,552,26.100000,50.200001,979.400024
16/06/2023,18:41:07.326,-977,-191,-113,179,262,149,670,55,562,26.100000,50.200001,979.400024
16/06/2023,18:41:07.336,-944,-191,-113,174,244,170,670,21,577,26.100000,50.200001,979.400024
16/06/2023,18:41:07.345,-922,-183,-136,175,234,188,664,54,582,26.100000,50.200001,979.400024
16/06/2023,18:41:07.354,-904,-176,-160,189,214,198,672,46,577,26.100000,50.200001,979.400024
16/06/2023,18:41:07.363,-894,-163,-181,223,201,198,672,46,577,26.100000,50.200001,979.400024
16/06/2023,18:41:07.373,-900,-144,-199,311,169,182,660,57,580,26.100000,50.200001,979.400024
16/06/2023,18:41:07.383,-924,-127,-218,450,168,172,660,57,580,26.100000,50.200001,979.400024
16/06/2023,18:41:07.392,-964,-114,-220,592,174,154,660,55,570,26.100000,50.200001,979.400024
16/06/2023,18:41:07.401,-1003,-91,-221,740,142,130,657,48,580,26.100000,50.200001,979.400024
16/06/2023,18:41:07.411,-1037,-99,-196,867,114,128,673,51,576,26.100000,50.200001,979.400024
16/06/2023,18:41:07.423,-1079,-123,-165,904,126,121,663,42,582,26.100000,50.200001,979.400024
16/06/2023,18:41:07.429,-1118,-125,-152,895,162,110,654,49,577,26.100000,50.200001,979.400024
16/06/2023,18:41:07.439,-1124,-143,-122,865,176,98,661,48,580,26.100000,50.200001,979.400024
16/06/2023,18:41:07.448,-1099,-181,-78,780,177,83,661,48,580,26.100000,50.200001,979.400024
16/06/2023,18:41:07.457,-1067,-244,-30,628,199,89,672,45,568,26.100000,50.200001,979.400024
16/06/2023,18:41:07.467,-1053,-310,7,431,209,111,658,48,577,26.100000,50.200001,979.400024
16/06/2023,18:41:07.476,-1053,-361,57,221,274,94,666,57,567,26.100000,50.200001,979.400024
16/06/2023,18:41:07.486,-1062,-410,142,43,238,46,664,64,592,26.100000,50.200001,979.400024
16/06/2023,18:41:07.495,-1069,-461,203,-89,70,10,657,63,592,26.100000,50.200001,979.400024
16/06/2023,18:41:07.504,-1070,-500,200,-196,-85,-15,675,49,582,26.100000,50.200001,979.400024
16/06/2023,18:41:07.514,-1093,-559,168,-296,-200,-8,649,67,576,26.100000,50.200001,979.400024
16/06/2023,18:41:07.526,-1168,-631,153,-410,-283,38,669,39,583,26.100000,50.200001,979.400024
16/06/2023,18:41:07.532,-1281,-702,167,-527,-414,65,676,51,574,26.100000,50.200001,979.400024
16/06/2023,18:41:07.541,-1380,-754,167,-697,-603,78,676,51,574,26.100000,50.200001,979.400024
16/06/2023,18:41:07.551,-1372,-741,110,-869,-753,39,661,51,582,26.100000,50.200001,979.400024
16/06/2023,18:41:07.561,-1260,-661,73,-976,-791,74,669,51,559,26.100000,50.200001,979.400024
16/06/2023,18:41:07.570,-1162,-517,148,-1017,-842,146,672,25,553,26.100000,50.200001,979.400024
16/06/2023,18:41:07.579,-1087,-334,253,-1053,-995,194,667,48,567,26.100000,50.200001,979.400024
16/06/2023,18:41:07.589,-1043,-218,256,-1108,-1188,234,684,19,574,26.100000,50.200001,979.400024
16/06/2023,18:41:07.598,-1066,-178,112,-1108,-1188,234,679,13,549,26.100000,50.200001,979.400024
16/06/2023,18:41:07.607,-1084,-145,-72,-1187,-1328,283,688,19,529,26.100000,50.200001,979.400024
16/06/2023,18:41:07.617,-1059,-116,-262,-1340,-1412,216,688,19,529,26.100000,50.299999,979.400024
16/06/2023,18:41:07.626,-1077,-33,-513,-1585,-1441,126,702,9,531,26.100000,50.299999,979.440002
16/06/2023,18:41:07.635,-1115,11,-722,-1766,-1323,-59,702,9,531,26.100000,50.299999,979.440002
16/06/2023,18:41:07.644,-1232,98,-878,-1671,-1253,-304,718,-3,528,26.100000,50.299999,979.440002
16/06/2023,18:41:07.654,-1327,201,-960,-1132,-1287,-590,715,-7,516,26.100000,50.299999,979.440002
16/06/2023,18:41:07.664,-1244,94,-824,-198,-1355,-928,724,-7,499,26.100000,50.299999,979.440002
16/06/2023,18:41:07.673,-1244,-123,-824,586,-1035,-819,708,4,492,26.100000,50.299999,979.440002
16/06/2023,18:41:07.682,-1257,-95,-359,783,-664,-189,711,3,501,26.100000,50.299999,979.440002
16/06/2023,18:41:07.692,-1515,-212,304,-26,-853,299,717,12,492,26.100000,50.299999,979.440002
16/06/2023,18:41:07.701,-1666,-328,559,-1248,-1434,361,723,4,480,26.100000,50.299999,979.440002
16/06/2023,18:41:07.710,-1508,-323,336,-1913,-1710,476,733,6,468,26.100000,50.299999,979.440002
16/06/2023,18:41:07.720,-1336,-73,38,-1832,-1622,371,736,-3,451,26.100000,50.299999,979.440002
16/06/2023,18:41:07.729,-1125,72,-208,-1458,-1264,243,736,-3,451,26.100000,50.299999,979.440002
16/06/2023,18:41:07.738,-892,48,-266,-943,-1055,340,735,-10,447,26.100000,50.299999,979.440002
16/06/2023,18:41:07.748,-767,67,-183,-651,-984,420,733,-19,442,26.100000,50.299999,979.440002
16/06/2023,18:41:07.757,-688,122,-118,-553,-872,416,753,-30,421,26.100000,50.299999,979.440002
16/06/2023,18:41:07.767,-607,131,-74,-522,-792,367,750,-37,414,26.100000,50.299999,979.440002
16/06/2023,18:41:07.776,-527,111,-63,-497,-725,317,750,-39,411,26.100000,50.299999,979.440002
16/06/2023,18:41:07.785,-514,110,-74,-488,-638,307,762,-27,402,26.100000,50.299999,979.440002
16/06/2023,18:41:07.795,-533,112,-62,-461,-559,273,756,-25,385,26.100000,50.299999,979.440002
16/06/2023,18:41:07.804,-520,113,-47,-411,-509,191,753,-33,384,26.100000,50.299999,979.440002
16/06/2023,18:41:07.814,-503,90,-51,-379,-458,109,756,-40,385,26.100000,50.299999,979.440002
16/06/2023,18:41:07.822,-544,49,-28,-327,-360,95,756,-40,385,26.100000,50.299999,979.440002
16/06/2023,18:41:07.832,-584,45,15,-296,-295,72,757,-34,373,26.100000,50.299999,979.440002
16/06/2023,18:41:07.842,-597,35,29,-299,-227,63,763,-31,375,26.100000,50.299999,979.440002
16/06/2023,18:41:07.851,-620,20,56,-303,-156,64,753,-55,388,26.100000,50.299999,979.440002
16/06/2023,18:41:07.860,-614,20,126,-307,-124,42,757,-55,379,26.100000,50.299999,979.440002
16/06/2023,18:41:07.870,-607,12,175,-291,-63,40,757,-54,372,26.100000,50.299999,979.440002
16/06/2023,18:41:07.879,-618,23,195,-250,-23,11,765,-28,364,26.100000,50.299999,979.440002
16/06/2023,18:41:07.888,-641,50,232,-161,64,-16,762,-51,381,26.100000,50.299999,979.440002
16/06/2023,18:41:07.898,-673,40,245,-115,165,-66,751,-58,385,26.100000,50.299999,979.440002
16/06/2023,18:41:07.907,-725,48,288,-65,262,-113,760,-37,369,26.100000,50.299999,979.440002
16/06/2023,18:41:07.916,-823,23,375,-21,316,-140,760,-37,369,26.100000,50.299999,979.440002
16/06/2023,18:41:07.928,-929,-30,459,-106,271,-160,748,-36,388,26.100000,50.299999,979.440002
16/06/2023,18:41:07.935,-1065,-81,522,-106,271,-160,733,-42,409,26.100000,50.299999,979.440002
16/06/2023,18:41:07.945,-1207,-126,596,-134,258,-153,741,-46,409,26.100000,50.299999,979.440002
16/06/2023,18:41:07.954,-1281,-187,697,-73,206,-115,747,-40,414,26.100000,50.299999,979.440002
16/06/2023,18:41:07.963,-1379,-307,773,60,198,-76,765,-37,397,26.100000,50.299999,979.440002
16/06/2023,18:41:07.973,-1485,-401,841,135,142,4,753,-39,405,26.100000,50.299999,979.440002
16/06/2023,18:41:07.982,-1403,-419,728,8,-43,139,747,-39,412,26.100000,50.299999,979.440002
16/06/2023,18:41:07.992,-1174,-319,541,59,-201,187,766,-52,391,26.100000,50.299999,979.440002
16/06/2023,18:41:08.001,-960,-259,415,270,-184,270,744,-52,414,26.100000,50.299999,979.440002
16/06/2023,18:41:08.010,-960,-259,415,304,-121,300,744,-52,414,26.100000,50.299999,979.440002
16/06/2023,18:41:08.019,-780,-286,285,326,-23,296,759,-46,390,26.100000,50.299999,979.440002
16/06/2023,18:41:08.029,-587,-235,154,387,116,289,754,-61,378,26.100000,50.299999,979.440002
16/06/2023,18:41:08.038,-493,-46,34,643,352,327,751,-57,378,26.100000,50.299999,979.440002
16/06/2023,18:41:08.048,-686,184,10,938,680,192,754,-43,403,26.100000,50.299999,979.440002
16/06/2023,18:41:08.057,-1044,200,28,904,1031,-190,754,-45,402,26.100000,50.299999,979.440002
16/06/2023,18:41:08.066,-1456,96,-146,979,1244,-609,757,-36,418,26.100000,50.299999,979.440002
16/06/2023,18:41:08.076,-1745,107,-363,1179,1351,-844,747,-45,423,26.100000,50.299999,979.440002
16/06/2023,18:41:08.085,-1706,140,-429,1104,1121,-853,751,-22,438,26.100000,50.299999,979.440002
16/06/2023,18:41:08.095,-1500,161,-309,726,820,-722,742,-37,445,26.100000,50.299999,979.440002
16/06/2023,18:41:08.103,-1231,173,-79,340,496,-551,742,-37,445,26.100000,50.299999,979.440002
16/06/2023,18:41:08.113,-976,167,39,78,259,-266,727,-16,448,26.100000,50.299999,979.440002
16/06/2023,18:41:08.123,-763,168,67,-16,58,-173,748,-31,457,26.100000,50.299999,979.440002
16/06/2023,18:41:08.132,-527,161,-12,17,73,-192,747,-24,448,26.100000,50.299999,979.440002
16/06/2023,18:41:08.141,-391,167,-160,248,329,-207,744,-16,469,26.100000,50.299999,979.440002
16/06/2023,18:41:08.151,-417,97,-248,412,605,-285,750,-16,460,26.100000,50.299999,979.440002
16/06/2023,18:41:08.160,-500,-10,-272,178,750,-341,729,-16,471,26.100000,50.299999,979.440002
16/06/2023,18:41:08.170,-601,-13,-321,38,825,-369,733,-13,463,26.100000,50.299999,979.440002
16/06/2023,18:41:08.182,-720,22,-348,146,913,-416,739,3,486,26.100000,50.299999,979.440002
16/06/2023,18:41:08.188,-849,48,-334,339,962,-489,739,3,486,26.100000,50.299999,979.440002
16/06/2023,18:41:08.197,-949,40,-313,602,990,-577,714,4,511,26.100000,50.299999,979.440002
16/06/2023,18:41:08.207,-994,-28,-320,933,982,-552,735,-1,511,26.100000,50.299999,979.440002
16/06/2023,18:41:08.216,-1045,-126,-322,1210,1056,-345,733,7,498,26.100000,50.299999,979.440002
16/06/2023,18:41:08.226,-1146,-238,-274,1358,1243,-144,718,16,493,26.100000,50.299999,979.440002
16/06/2023,18:41:08.235,-1280,-429,-165,1310,1289,263,711,27,514,26.100000,50.299999,979.440002
16/06/2023,18:41:08.244,-1386,-544,-57,1142,1159,749,718,16,526,26.100000,50.299999,979.440002
16/06/2023,18:41:08.254,-1360,-511,28,1083,816,823,708,33,523,26.100000,50.299999,979.440002
16/06/2023,18:41:08.263,-1127,-496,66,1092,539,621,714,27,535,26.100000,50.299999,979.440002
16/06/2023,18:41:08.273,-861,-501,45,1115,529,429,705,24,558,26.100000,50.299999,979.440002
16/06/2023,18:41:08.281,-739,-488,49,1076,616,335,705,24,558,26.100000,50.299999,979.440002
16/06/2023,18:41:08.291,-759,-435,55,954,646,275,703,22,550,26.100000,50.299999,979.440002
16/06/2023,18:41:08.301,-848,-373,64,954,646,275,712,28,558,26.100000,50.299999,979.440002
16/06/2023,18:41:08.310,-915,-309,94,798,654,202,693,13,550,26.100000,50.299999,979.440002
16/06/2023,18:41:08.319,-963,-217,93,653,620,178,690,25,558,26.100000,50.299999,979.440002
16/06/2023,18:41:08.329,-985,-133,44,523,575,168,682,24,568,26.100000,50.299999,979.440002
16/06/2023,18:41:08.338,-993,-87,-6,427,518,128,697,25,591,26.100000,50.299999,979.440002
16/06/2023,18:41:08.348,-989,-83,-41,402,418,79,681,27,559,26.100000,50.299999,979.440002
16/06/2023,18:41:08.357,-979,-90,-65,423,312,48,681,52,595,26.100000,50.299999,979.440002
16/06/2023,18:41:08.366,-979,-90,-65,450,274,58,673,22,565,26.100000,50.299999,979.440002
16/06/2023,18:41:08.375,-964,-113,-57,467,280,71,673,22,565,26.100000,50.299999,979.440002
16/06/2023,18:41:08.388,-952,-145,-31,495,308,82,694,15,559,26.100000,50.299999,979.440002
16/06/2023,18:41:08.394,-964,-163,0,507,301,74,673,15,583,26.100000,50.299999,979.440002
16/06/2023,18:41:08.404,-961,-190,21,487,230,55,673,39,577,26.100000,50.299999,979.440002
16/06/2023,18:41:08.413,-925,-236,-6,419,153,64,670,39,568,26.100000,50.299999,979.440002
16/06/2023,18:41:08.423,-901,-294,-56,293,104,104,688,42,579,26.100000,50.299999,979.440002
16/06/2023,18:41:08.432,-930,-310,-107,164,64,85,687,37,600,26.100000,50.299999,979.440002
16/06/2023,18:41:08.441,-969,-301,-161,107,38,30,690,42,570,26.100000,50.299999,979.440002
16/06/2023,18:41:08.451,-993,-325,-182,103,80,-6,675,55,568,26.100000,50.299999,979.440002
16/06/2023,18:41:08.459,-992,-351,-174,106,111,2,675,55,568,26.100000,50.299999,979.440002
16/06/2023,18:41:08.469,-974,-360,-153,126,147,17,678,43,580,26.100000,50.299999,979.440002
16/06/2023,18:41:08.479,-960,-383,-106,148,163,23,672,42,585,26.100000,50.299999,979.440002
16/06/2023,18:41:08.488,-974,-415,-61,121,147,37,679,39,585,26.100000,50.299999,979.440002
16/06/2023,18:41:08.497,-1026,-437,-35,22,184,40,676,37,567,26.100000,50.299999,979.440002
16/06/2023,18:41:08.507,-1102,-469,-21,-55,265,55,682,40,580,26.100000,50.299999,979.440002
16/06/2023,18:41:08.516,-1214,-534,14,-13,379,132,675,40,585,26.100000,50.299999,979.440002
16/06/2023,18:41:08.526,-1397,-565,209,134,378,219,648,39,583,26.100000,50.299999,979.440002
16/06/2023,18:41:08.535,-1586,-569,488,180,-98,298,675,36,594,26.100000,50.299999,979.440002
16/06/2023,18:41:08.544,-1597,-569,545,-130,-599,277,687,28,586,26.100000,50.299999,979.440002
16/06/2023,18:41:08.553,-1408,-453,351,-561,-817,281,687,28,586,26.100000,50.299999,979.440002
16/06/2023,18:41:08.563,-1261,-265,225,-760,-950,280,676,24,567,26.100000,50.299999,979.440002
16/06/2023,18:41:08.572,-1211,-140,295,-763,-1119,285,684,19,585,26.100000,50.299999,979.440002
16/06/2023,18:41:08.582,-1162,-91,366,-753,-1387,303,691,21,567,26.100000,50.299999,979.440002
16/06/2023,18:41:08.594,-1146,-63,300,-791,-1654,311,688,0,537,26.100000,50.299999,979.440002
16/06/2023,18:41:08.601,-1123,-68,109,-923,-1688,241,676,12,564,26.100000,50.299999,979.440002
16/06/2023,18:41:08.610,-1074,-82,-135,-1212,-1552,119,712,-10,526,26.100000,50.299999,979.440002
16/06/2023,18:41:08.619,-1084,-69,-385,-1212,-1552,119,718,-4,513,26.100000,50.299999,979.440002
16/06/2023,18:41:08.629,-1147,-59,-599,-1559,-1421,-22,726,-13,507,26.100000,50.299999,979.440002
16/06/2023,18:41:08.637,-1270,11,-762,-1857,-1375,-225,726,-13,507,26.100000,50.299999,979.440002
16/06/2023,18:41:08.647,-1421,104,-823,-1879,-1341,-523,723,-15,489,26.100000,50.299999,979.440002
16/06/2023,18:41:08.657,-1520,132,-804,-1374,-1382,-910,717,-10,498,26.100000,50.299999,979.440002
16/06/2023,18:41:08.666,-1569,81,-563,-522,-1367,-1115,726,9,469,26.100000,50.000000,979.409973
16/06/2023,18:41:08.675,-1548,-35,18,340,-1216,-888,738,0,478,26.100000,50.000000,979.409973
16/06/2023,18:41:08.685,-1546,-167,544,730,-1224,-340,739,-4,478,26.100000,50.000000,979.409973
16/06/2023,18:41:08.694,-1554,-205,552,-19,-1467,165,739,-1,463,26.100000,50.000000,979.409973
16/06/2023,18:41:08.704,-1462,-35,123,-1142,-1798,334,735,-4,454,26.100000,50.000000,979.409973
16/06/2023,18:41:08.712,-1462,-35,123,-1540,-1723,143,735,-4,454,26.100000,50.000000,979.409973
16/06/2023,18:41:08.722,-1197,103,-242,-1224,-1371,34,739,0,429,26.100000,50.000000,979.409973
16/06/2023,18:41:08.732,-910,98,-292,-626,-1155,170,733,-19,432,26.100000,50.000000,979.409973
16/06/2023,18:41:08.741,-654,78,-182,-258,-1093,352,741,-24,438,26.100000,50.000000,979.409973
16/06/2023,18:41:08.750,-433,93,-77,-149,-967,419,741,-12,402,26.100000,50.000000,979.409973
16/06/2023,18:41:08.760,-384,128,-25,-152,-874,410,751,-28,379,26.100000,50.000000,979.409973
16/06/2023,18:41:08.769,-372,136,-41,-219,-767,290,756,-24,372,26.100000,50.000000,979.409973
16/06/2023,18:41:08.779,-330,112,-42,-278,-665,158,747,-15,361,26.100000,50.000000,979.409973
16/06/2023,18:41:08.788,-331,66,-25,-305,-591,63,754,-22,391,26.100000,50.000000,979.409973
16/06/2023,18:41:08.797,-386,23,-47,-314,-552,-32,750,-6,382,26.100000,50.000000,979.409973
16/06/2023,18:41:08.806,-485,-29,-68,-278,-406,-79,750,-6,382,26.100000,50.000000,979.409973
16/06/2023,18:41:08.815,-563,-53,-44,-207,-312,-94,766,-25,367,26.100000,50.000000,979.409973
16/06/2023,18:41:08.825,-584,-23,-11,-152,-239,-109,759,-19,372,26.100000,50.000000,979.409973
16/06/2023,18:41:08.835,-586,12,22,-125,-145,-126,763,-34,355,26.100000,50.000000,979.409973
16/06/2023,18:41:08.844,-585,35,72,-132,-64,-147,759,-18,363,26.100000,50.000000,979.409973
16/06/2023,18:41:08.853,-583,55,132,-177,12,-139,753,-15,364,26.100000,50.000000,979.409973
16/06/2023,18:41:08.863,-577,70,179,-233,68,-117,744,-22,376,26.100000,50.000000,979.409973
16/06/2023,18:41:08.872,-581,65,214,-246,105,-111,757,-18,373,26.100000,50.000000,979.409973
16/06/2023,18:41:08.882,-616,80,255,-169,184,-150,754,-33,363,26.100000,50.000000,979.409973
16/06/2023,18:41:08.891,-660,81,287,10,333,-171,756,-28,366,26.100000,50.000000,979.409973
16/06/2023,18:41:08.900,-716,46,336,186,508,-165,756,-28,366,26.100000,50.000000,979.409973
16/06/2023,18:41:08.909,-802,6,470,339,582,-178,757,-19,384,26.100000,50.000000,979.409973
16/06/2023,18:41:08.919,-924,42,580,535,539,-178,754,-16,381,26.100000,50.000000,979.409973
16/06/2023,18:41:08.928,-1139,48,705,829,574,-160,753,-6,396,26.100000,50.000000,979.409973
16/06/2023,18:41:08.938,-1481,-108,969,764,570,-110,748,-7,409,26.100000,50.000000,979.409973
16/06/2023,18:41:08.947,-1721,-345,1170,149,254,-19,756,1,412,26.100000,50.000000,979.409973
16/06/2023,18:41:08.957,-1624,-347,987,-401,-107,97,756,-10,397,26.100000,50.000000,979.409973
16/06/2023,18:41:08.966,-1313,-213,657,-397,-232,227,759,-12,403,26.100000,50.000000,979.409973
16/06/2023,18:41:08.975,-1027,-236,504,-397,-232,227,747,-21,393,26.100000,50.000000,979.409973
16/06/2023,18:41:08.985,-811,-244,359,-160,-254,348,744,-13,391,26.100000,50.000000,979.409973
16/06/2023,18:41:08.997,-641,-125,196,131,-211,407,744,-13,391,26.100000,50.000000,979.409973
16/06/2023,18:41:09.003,-730,136,58,412,-8,331,756,-15,388,26.100000,50.000000,979.409973
16/06/2023,18:41:09.013,-1019,216,62,897,367,233,748,-36,391,26.100000,50.000000,979.409973
16/06/2023,18:41:09.022,-1294,84,44,1053,845,-40,748,-25,373,26.100000,50.000000,979.409973
16/06/2023,18:41:09.031,-1489,20,-160,1049,885,-362,750,-18,408,26.100000,50.000000,979.409973
16/06/2023,18:41:09.041,-1593,17,-255,1160,823,-609,748,-30,400,26.100000,50.000000,979.409973
16/06/2023,18:41:09.050,-1529,18,-102,1216,776,-657,742,-9,421,26.100000,50.000000,979.409973
16/06/2023,18:41:09.060,-1529,18,-102,987,759,-609,741,-1,420,26.100000,50.000000,979.409973
16/06/2023,18:41:09.069,-1306,20,88,562,599,-483,729,10,444,26.100000,50.000000,979.409973
16/06/2023,18:41:09.078,-1056,56,111,212,310,-279,729,10,444,26.100000,50.000000,979.409973
16/06/2023,18:41:09.087,-756,73,5,-4,71,-135,739,-3,439,26.100000,50.000000,979.409973
16/06/2023,18:41:09.097,-530,58,-102,-232,80,-99,732,4,439,26.100000,50.000000,979.409973
16/06/2023,18:41:09.106,-447,38,-146,-384,243,-179,736,-4,432,26.100000,50.000000,979.409973
16/06/2023,18:41:09.116,-418,-8,-188,-422,453,-300,736,-12,436,26.100000,50.000000,979.409973
16/06/2023,18:41:09.125,-463,-60,-249,-339,669,-429,742,16,453,26.100000,50.000000,979.409973
16/06/2023,18:41:09.135,-581,-114,-273,-229,864,-559,738,-10,454,26.100000,50.000000,979.409973
16/06/2023,18:41:09.144,-703,-176,-299,-190,999,-597,741,24,454,26.100000,50.000000,979.409973
16/06/2023,18:41:09.153,-803,-230,-315,-284,1054,-515,727,12,487,26.100000,50.000000,979.409973
16/06/2023,18:41:09.162,-901,-193,-312,-237,937,-416,727,12,487,26.100000,50.000000,979.409973
16/06/2023,18:41:09.171,-977,-112,-220,216,912,-478,727,24,466,26.100000,50.000000,979.409973
16/06/2023,18:41:09.181,-989,-128,-78,831,870,-476,732,4,474,26.100000,50.000000,979.409973
16/06/2023,18:41:09.191,-1007,-198,0,1236,811,-339,715,24,490,26.100000,50.000000,979.409973
16/06/2023,18:41:09.200,-1064,-279,72,1290,781,-164,699,25,511,26.100000,50.000000,979.409973
16/06/2023,18:41:09.209,-1122,-371,114,1055,766,0,699,25,511,26.100000,50.000000,979.409973
16/06/2023,18:41:09.219,-1138,-409,63,788,761,119,708,31,520,26.100000,50.000000,979.409973
16/06/2023,18:41:09.228,-1097,-392,-11,653,856,276,723,31,522,26.100000,50.000000,979.409973
16/06/2023,18:41:09.238,-1085,-368,-21,599,938,473,709,36,514,26.100000,50.000000,979.409973
16/06/2023,18:41:09.247,-1075,-328,-6,565,815,556,709,37,523,26.100000,50.000000,979.409973
16/06/2023,18:41:09.256,-995,-275,-7,507,721,477,709,37,523,26.100000,50.000000,979.409973
16/06/2023,18:41:09.265,-922,-239,-13,431,675,340,697,39,514,26.100000,50.000000,979.409973
16/06/2023,18:41:09.275,-902,-228,-16,323,656,196,702,37,544,26.100000,50.000000,979.409973
16/06/2023,18:41:09.284,-895,-214,-26,193,649,103,690,39,537,26.100000,50.000000,979.409973
16/06/2023,18:41:09.294,-900,-192,-39,54,674,60,681,45,535,26.100000,50.000000,979.409973
16/06/2023,18:41:09.303,-916,-161,-61,-40,669,45,694,27,550,26.100000,50.000000,979.409973
16/06/2023,18:41:09.313,-926,-127,-91,-70,623,49,693,30,562,26.100000,50.000000,979.409973
16/06/2023,18:41:09.322,-933,-106,-117,-61,558,62,688,37,550,26.100000,50.000000,979.409973
16/06/2023,18:41:09.331,-940,-107,-137,-61,558,62,681,27,564,26.100000,50.000000,979.409973
16/06/2023,18:41:09.341,-951,-121,-131,-11,530,96,676,21,570,26.100000,50.000000,979.409973
16/06/2023,18:41:09.349,-990,-134,-81,86,555,153,676,21,570,26.100000,50.000000,979.409973
16/06/2023,18:41:09.359,-1039,-151,11,210,642,209,666,30,583,26.100000,50.000000,979.409973
16/06/2023,18:41:09.369,-1089,-169,144,326,723,269,666,30,583,26.100000,50.000000,979.409973
16/06/2023,18:41:09.378,-1122,-211,234,417,699,293,664,33,571,26.100000,50.000000,979.409973
16/06/2023,18:41:09.388,-1110,-285,223,459,483,226,670,10,568,26.100000,50.000000,979.409973
16/06/2023,18:41:09.397,-1065,-333,188,445,261,179,682,22,588,26.100000,50.000000,979.409973
16/06/2023,18:41:09.406,-1065,-333,188,302,143,157,655,48,586,26.100000,50.000000,979.409973
16/06/2023,18:41:09.416,-1006,-327,152,109,53,98,666,16,583,26.100000,50.000000,979.409973
16/06/2023,18:41:09.425,-979,-326,101,-9,-38,41,676,28,571,26.100000,50.000000,979.409973
16/06/2023,18:41:09.434,-1041,-334,85,-76,-85,19,676,28,571,26.100000,50.000000,979.409973
16/06/2023,18:41:09.443,-1171,-336,126,-140,-214,14,667,24,588,26.100000,50.000000,979.409973
16/06/2023,18:41:09.453,-1254,-364,174,-297,-370,8,661,25,568,26.100000,50.000000,979.409973
16/06/2023,18:41:09.462,-1293,-410,208,-519,-477,34,675,33,549,26.100000,50.000000,979.409973
16/06/2023,18:41:09.472,-1269,-467,251,-655,-609,84,670,31,565,26.100000,50.000000,979.409973
16/06/2023,18:41:09.481,-1270,-505,326,-710,-877,186,666,21,571,26.100000,50.000000,979.409973
16/06/2023,18:41:09.491,-1369,-476,472,-689,-1235,236,681,22,570,26.100000,50.000000,979.409973
16/06/2023,18:41:09.500,-1399,-427,637,-910,-1526,221,684,3,552,26.100000,50.000000,979.409973
16/06/2023,18:41:09.509,-1331,-344,562,-1485,-1707,219,697,-3,534,26.100000,50.000000,979.409973
16/06/2023,18:41:09.519,-1231,-335,76,-2083,-1690,220,721,3,517,26.100000,50.000000,979.409973
16/06/2023,18:41:09.527,-1234,-287,-378,-2402,-1551,139,721,3,517,26.100000,50.000000,979.409973
16/06/2023,18:41:09.537,-1212,-192,-539,-2414,-1495,-147,694,-13,529,26.100000,50.000000,979.409973
16/06/2023,18:41:09.547,-1150,-139,-640,-2300,-1450,-373,700,-21,522,26.100000,50.000000,979.409973
16/06/2023,18:41:09.556,-1169,-56,-708,-1944,-1491,-558,709,-31,508,26.100000,50.000000,979.409973
16/06/2023,18:41:09.566,-1145,-33,-671,-1235,-1633,-663,709,-9,487,26.100000,50.000000,979.409973
16/06/2023,18:41:09.575,-1108,-69,-525,-527,-1506,-508,732,-18,462,26.100000,50.000000,979.409973
16/06/2023,18:41:09.584,-1214,-109,-248,-45,-1093,-209,720,-18,448,26.100000,50.000000,979.409973
16/06/2023,18:41:09.594,-1447,-95,101,52,-984,-21,741,-31,444,26.100000,50.000000,979.409973
16/06/2023,18:41:09.606,-1488,-95,322,-315,-1153,96,733,-22,433,26.100000,50.000000,979.409973
16/06/2023,18:41:09.612,-1352,-91,231,-789,-1352,204,744,-21,433,26.100000,50.000000,979.409973
16/06/2023,18:41:09.621,-1225,-42,-53,-956,-1282,243,744,-21,433,26.100000,50.000000,979.409973
16/06/2023,18:41:09.630,-1063,-46,-196,-769,-980,304,732,-21,429,26.100000,50.000000,979.409973
16/06/2023,18:41:09.640,-855,-57,-107,-429,-819,357,751,-21,414,26.100000,50.000000,979.409973
16/06/2023,18:41:09.650,-657,10,34,-309,-767,373,739,-30,405,26.100000,50.000000,979.409973
16/06/2023,18:41:09.659,-535,62,65,-391,-698,356,742,-28,394,26.100000,50.000000,979.409973
16/06/2023,18:41:09.669,-473,69,57,-541,-619,300,762,-39,379,26.100000,50.000000,979.409973
16/06/2023,18:41:09.678,-409,45,13,-541,-619,300,727,-34,390,26.100000,50.000000,979.409973
16/06/2023,18:41:09.687,-460,-23,-48,-656,-535,219,738,-64,379,26.100000,50.000000,979.409973
16/06/2023,18:41:09.697,-571,-75,-53,-655,-340,196,741,-37,378,26.100000,50.000000,979.409973
16/06/2023,18:41:09.707,-599,-81,-40,-581,-207,189,741,-37,378,26.100000,49.500000,979.409973
16/06/2023,18:41:09.715,-604,-61,-39,-499,-133,160,750,-43,384,26.100000,49.500000,979.380005
16/06/2023,18:41:09.724,-629,-40,-67,-436,-45,127,750,-43,387,26.100000,49.500000,979.380005
16/06/2023,18:41:09.734,-665,-10,-63,-382,48,99,727,-57,373,26.100000,49.500000,979.380005
16/06/2023,18:41:09.744,-666,41,-7,-337,157,115,754,-61,378,26.100000,49.500000,979.380005
16/06/2023,18:41:09.753,-666,41,-7,-307,249,126,747,-37,384,26.100000,49.500000,979.380005
16/06/2023,18:41:09.762,-613,99,60,-304,289,111,739,-39,390,26.100000,49.500000,979.380005
16/06/2023,18:41:09.772,-557,160,92,-301,326,70,757,-67,378,26.100000,49.500000,979.380005
16/06/2023,18:41:09.781,-573,209,110,-238,405,52,732,-46,394,26.100000,49.500000,979.380005
16/06/2023,18:41:09.790,-637,249,177,-154,504,18,751,-57,403,26.100000,49.500000,979.380005
16/06/2023,18:41:09.800,-700,250,262,-112,576,-21,727,-58,379,26.100000,49.500000,979.380005
16/06/2023,18:41:09.808,-767,184,331,-95,637,-71,727,-58,379,26.100000,49.500000,979.380005
16/06/2023,18:41:09.818,-847,49,387,-95,698,-132,715,-45,409,26.100000,49.500000,979.380005
16/06/2023,18:41:09.828,-942,-45,419,-8,800,-229,739,-57,396,26.100000,49.500000,979.380005
16/06/2023,18:41:09.837,-1095,-157,523,106,868,-288,729,-52,412,26.100000,49.500000,979.380005
16/06/2023,18:41:09.847,-1312,-346,727,47,597,-184,723,-31,412,26.100000,49.500000,979.380005
16/06/2023,18:41:09.856,-1570,-519,998,-203,201,-14,756,-31,417,26.100000,49.500000,979.380005
16/06/2023,18:41:09.865,-1694,-572,1126,-668,-158,74,732,-42,435,26.100000,49.500000,979.380005
16/06/2023,18:41:09.875,-1489,-509,928,-832,-454,214,726,-37,430,26.100000,49.500000,979.380005
16/06/2023,18:41:09.884,-1183,-404,542,-682,-511,337,748,-39,390,26.100000,49.500000,979.380005
16/06/2023,18:41:09.893,-1000,-228,211,-285,-313,416,732,-55,402,26.100000,49.500000,979.380005
16/06/2023,18:41:09.902,-898,-92,162,119,-162,426,732,-55,402,26.100000,49.500000,979.380005
16/06/2023,18:41:09.912,-799,28,170,427,-55,445,730,-61,412,26.100000,49.500000,979.380005
16/06/2023,18:41:09.922,-886,250,59,813,173,340,750,-46,393,26.100000,49.500000,979.380005
16/06/2023,18:41:09.931,-1164,327,-12,1118,546,116,738,-49,405,26.100000,49.500000,979.380005
16/06/2023,18:41:09.940,-1351,218,-44,1227,707,-199,724,-82,435,26.100000,49.500000,979.380005
16/06/2023,18:41:09.950,-1377,187,-162,1238,636,-440,738,-58,439,26.100000,49.500000,979.380005
16/06/2023,18:41:09.962,-1310,204,-203,1127,613,-521,732,-49,432,26.100000,49.500000,979.380005
16/06/2023,18:41:09.968,-1223,184,-36,853,562,-459,718,-58,456,26.100000,49.500000,979.380005
16/06/2023,18:41:09.978,-1097,157,114,443,428,-421,724,-28,435,26.100000,49.500000,979.380005
16/06/2023,18:41:09.986,-927,128,83,67,303,-392,724,-28,435,26.100000,49.500000,979.380005
16/06/2023,18:41:09.996,-786,100,-38,-176,220,-344,739,-37,444,26.100000,49.500000,979.380005
16/06/2023,18:41:10.006,-717,88,-154,-361,246,-366,721,-28,444,26.100000,49.500000,979.380005
16/06/2023,18:41:10.015,-647,52,-249,-406,325,-469,733,-36,438,26.100000,49.500000,979.380005
16/06/2023,18:41:10.024,-588,-8,-313,-406,325,-469,715,-28,462,26.100000,49.500000,979.380005
16/06/2023,18:41:10.034,-616,-79,-362,-374,501,-516,709,-33,454,26.100000,49.500000,979.380005
16/06/2023,18:41:10.043,-722,-142,-423,-343,693,-573,726,-21,450,26.100000,49.500000,979.380005
16/06/2023,18:41:10.053,-830,-179,-440,-381,985,-593,715,-30,462,26.100000,49.500000,979.380005
16/06/2023,18:41:10.062,-882,-204,-380,-607,1058,-642,721,-24,478,26.100000,49.500000,979.380005
16/06/2023,18:41:10.071,-924,-168,-314,-820,968,-637,709,-21,489,26.100000,49.500000,979.380005
16/06/2023,18:41:10.080,-924,-168,-314,-443,876,-576,709,-21,489,26.100000,49.500000,979.380005
16/06/2023,18:41:10.090,-972,-144,-247,478,905,-436,720,-22,504,26.100000,49.500000,979.380005
16/06/2023,18:41:10.100,-1035,-213,-116,1224,994,-216,697,7,511,26.100000,49.500000,979.380005
16/06/2023,18:41:10.112,-1133,-293,68,1473,984,-14,699,3,490,26.100000,49.500000,979.380005
16/06/2023,18:41:10.118,-1183,-304,164,1432,871,41,693,-7,493,26.100000,49.500000,979.380005
16/06/2023,18:41:10.128,-1136,-280,136,1343,752,116,693,7,517,26.100000,49.500000,979.380005
16/06/2023,18:41:10.137,-1090,-294,69,1190,820,375,691,16,535,26.100000,49.500000,979.380005
16/06/2023,18:41:10.146,-1141,-276,24,986,945,726,685,0,531,26.100000,49.500000,979.380005
16/06/2023,18:41:10.156,-1162,-217,44,887,876,817,676,9,526,26.100000,49.500000,979.380005
16/06/2023,18:41:10.165,-1063,-182,62,860,664,633,651,-3,555,26.100000,49.500000,979.380005
16/06/2023,18:41:10.174,-927,-196,47,817,510,376,651,-3,555,26.100000,49.500000,979.380005
16/06/2023,18:41:10.183,-819,-210,33,703,485,245,679,-7,549,26.100000,49.500000,979.380005
16/06/2023,18:41:10.193,-787,-182,42,544,516,177,675,-4,538,26.100000,49.500000,979.380005
16/06/2023,18:41:10.203,-796,-136,40,376,501,112,664,-9,534,26.100000,49.500000,979.380005
16/06/2023,18:41:10.215,-815,-90,-21,274,463,61,664,15,535,26.100000,49.500000,979.380005
16/06/2023,18:41:10.221,-848,-56,-106,250,461,28,670,4,558,26.100000,49.500000,979.380005
16/06/2023,18:41:10.231,-879,-36,-151,287,471,9,669,9,553,26.100000,49.500000,979.380005
16/06/2023,18:41:10.240,-917,-26,-151,344,465,7,664,19,570,26.100000,49.500000,979.380005
16/06/2023,18:41:10.249,-965,-48,-83,400,451,-3,664,4,562,26.100000,49.500000,979.380005
16/06/2023,18:41:10.259,-988,-122,14,446,442,-18,657,13,561,26.100000,49.500000,979.380005
16/06/2023,18:41:10.268,-1009,-192,80,496,428,14,657,13,561,26.100000,49.500000,979.380005
16/06/2023,18:41:10.277,-1035,-218,112,484,360,50,657,21,576,26.100000,49.500000,979.380005
16/06/2023,18:41:10.287,-1031,-217,92,420,270,66,631,15,577,26.100000,49.500000,979.380005
16/06/2023,18:41:10.296,-1010,-211,48,326,189,88,649,19,574,26.100000,49.500000,979.380005
16/06/2023,18:41:10.306,-963,-193,-18,223,120,86,657,10,550,26.100000,49.500000,979.380005
16/06/2023,18:41:10.315,-902,-154,-99,149,83,85,654,3,579,26.100000,49.500000,979.380005
16/06/2023,18:41:10.324,-856,-113,-163,113,56,85,633,27,571,26.100000,49.500000,979.380005
16/06/2023,18:41:10.334,-843,-82,-206,185,13,80,655,21,580,26.100000,49.500000,979.380005
16/06/2023,18:41:10.343,-865,-55,-249,330,-16,79,643,22,576,26.100000,49.500000,979.380005
16/06/2023,18:41:10.352,-900,-39,-284,330,-16,79,642,6,580,26.100000,49.500000,979.380005
16/06/2023,18:41:10.361,-969,-45,-280,621,24,115,642,6,580,26.100000,49.500000,979.380005
16/06/2023,18:41:10.371,-1062,-49,-274,621,24,115,640,43,582,26.100000,49.500000,979.380005
16/06/2023,18:41:10.381,-1154,-54,-270,770,36,127,640,43,582,26.100000,49.500000,979.380005
16/06/2023,18:41:10.390,-1235,-76,-240,904,65,116,648,28,568,26.100000,49.500000,979.380005
16/06/2023,18:41:10.399,-1293,-101,-202,1012,80,102,642,27,576,26.100000,49.500000,979.380005
16/06/2023,18:41:10.409,-1315,-154,-126,1071,119,67,630,45,573,26.100000,49.500000,979.380005
16/06/2023,18:41:10.418,-1284,-236,-30,1021,194,29,645,43,571,26.100000,49.500000,979.380005
16/06/2023,18:41:10.427,-1212,-313,22,863,174,-2,634,42,565,26.100000,49.500000,979.380005
16/06/2023,18:41:10.437,-1154,-383,38,636,114,-23,646,52,564,26.100000,49.500000,979.380005
16/06/2023,18:41:10.446,-1154,-383,38,376,85,-29,646,52,564,26.100000,49.500000,979.380005
16/06/2023,18:41:10.455,-1133,-447,29,117,87,-52,640,55,568,26.100000,49.500000,979.380005
16/06/2023,18:41:10.465,-1104,-504,14,-114,144,-111,631,43,571,26.100000,49.500000,979.380005
16/06/2023,18:41:10.474,-1045,-567,29,-269,199,-214,636,36,576,26.100000,49.500000,979.380005
16/06/2023,18:41:10.484,-959,-641,72,-358,240,-286,651,51,579,26.100000,49.500000,979.380005
16/06/2023,18:41:10.493,-900,-697,110,-463,208,-324,627,33,588,26.100000,49.500000,979.380005
16/06/2023,18:41:10.502,-877,-773,120,-527,134,-349,645,42,561,26.100000,49.500000,979.380005
16/06/2023,18:41:10.512,-883,-887,115,-528,44,-281,631,40,574,26.100000,49.500000,979.380005
16/06/2023,18:41:10.521,-956,-987,111,-470,-79,-120,624,49,591,26.100000,49.500000,979.380005
16/06/2023,18:41:10.531,-1094,-950,106,-514,-197,21,642,34,600,26.100000,49.500000,979.380005
16/06/2023,18:41:10.539,-1113,-736,101,-651,-376,89,642,34,600,26.100000,49.500000,979.380005
16/06/2023,18:41:10.549,-1034,-503,109,-770,-494,124,639,49,570,26.100000,49.500000,979.380005
16/06/2023,18:41:10.559,-1021,-346,160,-842,-595,151,636,27,586,26.100000,49.500000,979.380005
16/06/2023,18:41:10.568,-1026,-240,206,-882,-707,202,648,30,583,26.100000,49.500000,979.380005
16/06/2023,18:41:10.577,-1066,-153,215,-900,-859,277,625,22,583,26.100000,49.500000,979.380005
16/06/2023,18:41:10.587,-1145,-95,167,-898,-1048,366,649,6,571,26.100000,49.500000,979.380005
16/06/2023,18:41:10.596,-1207,-35,14,-902,-1111,394,645,3,571,26.100000,49.500000,979.380005
16/06/2023,18:41:10.605,-1256,16,-177,-914,-1074,316,660,13,540,26.100000,49.500000,979.380005
16/06/2023,18:41:10.615,-1317,41,-372,-892,-1055,182,664,9,541,26.100000,49.500000,979.380005
16/06/2023,18:41:10.627,-1392,105,-559,-760,-1098,-74,669,3,547,26.100000,49.500000,979.380005
16/06/2023,18:41:10.633,-1408,140,-680,-538,-1153,-422,669,3,547,26.100000,49.500000,979.380005
16/06/2023,18:41:10.642,-1338,108,-760,-315,-1139,-531,673,-10,535,26.100000,49.500000,979.380005
16/06/2023,18:41:10.652,-1289,85,-747,-13,-1000,-324,675,-7,534,26.100000,49.500000,979.380005
16/06/2023,18:41:10.662,-1335,40,-393,171,-591,-3,666,4,511,26.100000,49.500000,979.380005
16/06/2023,18:41:10.671,-1434,-35,188,-68,-729,163,663,6,526,26.100000,49.500000,979.380005
16/06/2023,18:41:10.680,-1482,-126,468,-832,-1219,248,681,3,528,26.100000,49.500000,979.380005
16/06/2023,18:41:10.690,-1446,-200,351,-1526,-1499,343,676,-1,496,26.100000,49.500000,979.380005
16/06/2023,18:41:10.699,-1295,-151,116,-1883,-1650,573,670,-13,495,26.100000,49.500000,979.380005
16/06/2023,18:41:10.709,-1094,-41,-39,-1883,-1650,573,696,-16,472,26.100000,49.500000,979.380005
16/06/2023,18:41:10.718,-945,-30,-86,-1732,-1667,609,690,-3,487,26.100000,49.500000,979.380005
16/06/2023,18:41:10.727,-855,-20,-131,-1548,-1461,552,690,-3,487,26.100000,49.500000,979.380005
16/06/2023,18:41:10.736,-772,20,-132,-1343,-1204,563,694,-36,471,26.100000,49.500000,979.380005
16/06/2023,18:41:10.746,-670,56,-71,-1048,-1034,581,703,-37,475,26.100000,49.500000,979.380005
16/06/2023,18:41:10.755,-617,118,-44,-826,-935,596,717,-58,445,26.100000,50.400002,979.479980
16/06/2023,18:41:10.765,-586,167,-43,-697,-896,648,702,-76,427,26.100000,50.400002,979.479980
16/06/2023,18:41:10.774,-531,178,-41,-623,-839,630,691,-51,445,26.100000,50.400002,979.479980
16/06/2023,18:41:10.783,-508,179,0,-589,-767,593,684,-82,423,26.100000,50.400002,979.479980
16/06/2023,18:41:10.793,-508,179,0,-553,-677,550,696,-78,412,26.100000,50.400002,979.479980
16/06/2023,18:41:10.802,-508,166,41,-510,-603,487,708,-75,423,26.100000,50.400002,979.479980
16/06/2023,18:41:10.811,-490,105,40,-484,-528,437,708,-75,423,26.100000,50.400002,979.479980
16/06/2023,18:41:10.820,-485,51,42,-490,-457,385,702,-78,408,26.100000,50.400002,979.479980
16/06/2023,18:41:10.830,-507,24,48,-512,-380,366,708,-87,394,26.100000,50.400002,979.479980
16/06/2023,18:41:10.840,-516,18,78,-558,-301,330,706,-93,409,26.100000,50.400002,979.479980
16/06/2023,18:41:10.849,-510,5,75,-638,-202,266,697,-93,406,26.100000,50.400002,979.479980
16/06/2023,18:41:10.858,-543,-55,93,-683,-57,215,708,-97,417,26.100000,50.400002,979.479980
16/06/2023,18:41:10.868,-596,-74,144,-741,25,166,682,-96,402,26.100000,50.400002,979.479980
16/06/2023,18:41:10.877,-607,-51,154,-734,98,114,706,-106,396,26.100000,50.400002,979.479980
16/06/2023,18:41:10.887,-609,-145,96,-671,207,98,700,-106,393,26.100000,50.400002,979.479980
16/06/2023,18:41:10.895,-682,-169,129,-507,313,143,700,-106,393,26.100000,50.400002,979.479980
16/06/2023,18:41:10.905,-749,-69,276,-409,363,105,693,-111,405,26.100000,50.400002,979.479980
16/06/2023,18:41:10.915,-762,12,337,-381,381,-25,691,-96,402,26.100000,50.400002,979.479980
16/06/2023,18:41:10.924,-775,53,380,-435,455,-74,687,-114,415,26.100000,50.400002,979.479980
16/06/2023,18:41:10.933,-793,2,467,-497,471,-116,688,-96,415,26.100000,50.400002,979.479980
16/06/2023,18:41:10.943,-862,-48,579,-568,420,-97,690,-115,399,26.100000,50.400002,979.479980
16/06/2023,18:41:10.952,-1003,-87,667,-560,337,-107,685,-106,430,26.100000,50.400002,979.479980
16/06/2023,18:41:10.961,-1206,-135,745,-517,181,-90,687,-99,402,26.100000,50.400002,979.479980
16/06/2023,18:41:10.971,-1447,-267,796,-238,177,-33,688,-93,399,26.100000,50.400002,979.479980
16/06/2023,18:41:10.980,-1626,-486,859,-15,1,188,688,-103,442,26.100000,50.400002,979.479980
16/06/2023,18:41:10.989,-1615,-593,868,-63,-221,397,688,-103,442,26.100000,50.400002,979.479980
16/06/2023,18:41:10.998,-1388,-415,618,135,-224,370,687,-94,414,26.100000,50.400002,979.479980
16/06/2023,18:41:11.008,-1110,-140,426,499,-118,390,693,-109,409,26.100000,50.400002,979.479980
16/06/2023,18:41:11.018,-903,32,409,641,-1,403,687,-111,411,26.100000,50.400002,979.479980
16/06/2023,18:41:11.027,-721,119,295,582,183,348,679,-108,415,26.100000,50.400002,979.479980
16/06/2023,18:41:11.036,-660,186,180,738,336,347,678,-120,400,26.100000,50.400002,979.479980
16/06/2023,18:41:11.046,-839,258,180,1019,597,195,673,-115,421,26.100000,50.400002,979.479980
16/06/2023,18:41:11.055,-1149,205,178,948,854,-39,678,-120,417,26.100000,50.400002,979.479980
16/06/2023,18:41:11.065,-1450,69,2,948,854,-39,682,-126,429,26.100000,50.400002,979.479980
16/06/2023,18:41:11.074,-1632,22,-263,819,952,-447,654,-100,453,26.100000,50.400002,979.479980
16/06/2023,18:41:11.083,-1606,55,-462,808,870,-772,654,-100,453,26.100000,50.400002,979.479980
16/06/2023,18:41:11.092,-1400,42,-509,827,649,-800,670,-105,445,26.100000,50.400002,979.479980
16/06/2023,18:41:11.102,-1134,21,-392,615,644,-663,682,-109,471,26.100000,50.400002,979.479980
16/06/2023,18:41:11.111,-931,83,-248,273,642,-482,669,-102,462,26.100000,50.400002,979.479980
16/06/2023,18:41:11.121,-747,152,-179,35,460,-325,666,-87,477,26.100000,50.400002,979.479980
16/06/2023,18:41:11.130,-583,183,-186,-30,268,-245,669,-81,492,26.100000,50.400002,979.479980
16/06/2023,18:41:11.139,-583,183,-186,68,231,-216,673,-105,456,26.100000,50.400002,979.479980
16/06/2023,18:41:11.149,-498,207,-250,280,392,-266,660,-90,463,26.100000,50.400002,979.479980
16/06/2023,18:41:11.158,-507,202,-297,439,654,-315,660,-100,477,26.100000,50.400002,979.479980
16/06/2023,18:41:11.168,-560,170,-280,595,812,-396,661,-88,487,26.100000,50.400002,979.479980
16/06/2023,18:41:11.176,-598,113,-265,634,919,-464,661,-88,487,26.100000,50.400002,979.479980
16/06/2023,18:41:11.186,-671,78,-258,592,1052,-508,663,-88,496,26.100000,50.400002,979.479980
16/06/2023,18:41:11.196,-804,119,-212,669,1062,-563,640,-64,504,26.100000,50.400002,979.479980
16/06/2023,18:41:11.205,-901,121,-154,919,883,-666,648,-58,498,26.100000,50.400002,979.479980
16/06/2023,18:41:11.214,-933,50,-169,1132,792,-717,640,-64,508,26.100000,50.400002,979.479980
16/06/2023,18:41:11.224,-975,-19,-264,1269,943,-668,627,-63,526,26.100000,50.400002,979.479980
16/06/2023,18:41:11.233,-1071,-73,-329,1319,1162,-502,636,-49,520,26.100000,50.400002,979.479980
16/06/2023,18:41:11.243,-1226,-182,-285,1327,1353,-336,630,-36,546,26.100000,50.400002,979.479980
16/06/2023,18:41:11.252,-1365,-439,-118,1208,1259,65,628,-49,538,26.100000,50.400002,979.479980
16/06/2023,18:41:11.261,-1455,-598,-27,1081,986,548,628,-49,538,26.100000,50.400002,979.479980
16/06/2023,18:41:11.270,-1353,-579,-43,1095,822,541,613,-42,546,26.100000,50.400002,979.479980
16/06/2023,18:41:11.280,-1062,-577,-26,1154,750,341,612,-31,564,26.100000,50.400002,979.479980
16/06/2023,18:41:11.289,-832,-578,-11,1158,770,253,613,-39,568,26.100000,50.400002,979.479980
16/06/2023,18:41:11.299,-763,-535,-2,1112,739,258,609,-30,568,26.100000,50.400002,979.479980
16/06/2023,18:41:11.308,-780,-467,-27,1009,685,270,591,-40,580,26.100000,50.400002,979.479980
16/06/2023,18:41:11.317,-814,-406,-33,887,690,233,585,-7,579,26.100000,50.400002,979.479980
16/06/2023,18:41:11.327,-840,-339,-27,806,698,199,591,-19,597,26.100000,50.400002,979.479980
16/06/2023,18:41:11.336,-861,-267,-1,775,692,182,588,-21,606,26.100000,50.400002,979.479980
16/06/2023,18:41:11.345,-884,-210,55,726,660,173,588,-21,606,26.100000,50.400002,979.479980
16/06/2023,18:41:11.354,-915,-146,89,676,622,172,579,-21,586,26.100000,50.400002,979.479980
16/06/2023,18:41:11.364,-958,-106,133,666,557,153,574,-16,597,26.100000,50.400002,979.479980
16/06/2023,18:41:11.374,-979,-106,167,638,485,109,568,-24,579,26.100000,50.400002,979.479980
16/06/2023,18:41:11.383,-986,-125,171,543,419,69,564,-19,610,26.100000,50.400002,979.479980
16/06/2023,18:41:11.392,-990,-174,146,413,321,44,564,-19,610,26.100000,50.400002,979.479980
16/06/2023,18:41:11.402,-978,-256,61,317,210,31,577,6,594,26.100000,50.400002,979.479980
16/06/2023,18:41:11.411,-966,-336,-31,317,210,31,562,-4,607,26.100000,50.400002,979.479980
16/06/2023,18:41:11.421,-972,-364,-95,233,155,93,567,-21,606,26.100000,50.400002,979.479980
16/06/2023,18:41:11.430,-976,-369,-145,144,124,134,561,-18,598,26.100000,50.400002,979.479980
16/06/2023,18:41:11.439,-957,-406,-171,85,89,81,561,-18,598,26.100000,50.400002,979.479980
16/06/2023,18:41:11.448,-947,-453,-189,56,81,1,561,-18,607,26.100000,50.400002,979.479980
16/06/2023,18:41:11.458,-967,-481,-194,34,103,3,549,-19,616,26.100000,50.400002,979.479980
16/06/2023,18:41:11.467,-1007,-500,-177,46,91,30,565,-19,594,26.100000,50.400002,979.479980
16/06/2023,18:41:11.477,-1044,-526,-122,83,51,36,559,-27,594,26.100000,50.400002,979.479980
16/06/2023,18:41:11.486,-1044,-526,-122,74,97,15,543,-19,594,26.100000,50.400002,979.479980
16/06/2023,18:41:11.496,-1086,-539,-63,63,175,16,558,-19,615,26.100000,50.400002,979.479980
16/06/2023,18:41:11.505,-1154,-528,-3,97,300,44,541,-13,612,26.100000,50.400002,979.479980
16/06/2023,18:41:11.514,-1229,-497,177,181,375,92,547,-22,618,26.100000,50.400002,979.479980
16/06/2023,18:41:11.524,-1345,-478,481,264,-1,158,541,-31,610,26.100000,50.400002,979.479980
16/06/2023,18:41:11.532,-1461,-507,629,82,-492,173,541,-31,610,26.100000,50.400002,979.479980
16/06/2023,18:41:11.542,-1467,-519,501,-377,-762,198,535,-12,625,26.100000,50.400002,979.479980
16/06/2023,18:41:11.552,-1381,-446,330,-731,-885,267,535,-12,625,26.100000,50.400002,979.479980
16/06/2023,18:41:11.561,-1302,-317,266,-866,-1031,355,550,-30,604,26.100000,50.400002,979.479980
16/06/2023,18:41:11.570,-1291,-207,264,-823,-1295,406,568,-43,601,26.100000,50.400002,979.479980
16/06/2023,18:41:11.580,-1272,-116,267,-773,-1563,392,558,-48,586,26.100000,50.400002,979.479980
16/06/2023,18:41:11.589,-1185,-39,203,-832,-1727,371,565,-58,598,26.100000,50.400002,979.479980
16/06/2023,18:41:11.599,-1079,-35,-20,-1027,-1668,352,579,-57,576,26.100000,50.400002,979.479980
16/06/2023,18:41:11.608,-1056,-85,-325,-1264,-1571,335,579,-88,549,26.100000,50.400002,979.479980
16/06/2023,18:41:11.617,-1103,-94,-567,-1444,-1490,159,579,-88,549,26.100000,50.400002,979.479980
16/06/2023,18:41:11.626,-1150,-36,-709,-1559,-1314,-120,588,-99,543,26.100000,50.400002,979.479980
16/06/2023,18:41:11.636,-1245,52,-755,-1574,-1219,-389,612,-106,538,26.100000,50.400002,979.479980
16/06/2023,18:41:11.645,-1380,131,-811,-1249,-1159,-737,598,-111,537,26.100000,50.400002,979.479980
16/06/2023,18:41:11.655,-1491,127,-876,-458,-1110,-919,612,-117,513,26.100000,50.400002,979.479980
16/06/2023,18:41:11.664,-1599,94,-742,494,-865,-700,624,-132,531,26.100000,50.400002,979.479980
16/06/2023,18:41:11.674,-1598,-10,-45,971,-877,-269,616,-108,516,26.100000,50.400002,979.479980
16/06/2023,18:41:11.686,-1515,-153,701,293,-1354,274,637,-106,520,26.100000,50.400002,979.479980
16/06/2023,18:41:11.692,-1558,-131,752,-993,-1703,410,634,-102,493,26.100000,50.400002,979.479980
16/06/2023,18:41:11.701,-1448,-49,370,-1803,-1745,51,634,-102,493,26.100000,50.400002,979.479980
16/06/2023,18:41:11.710,-1120,-19,-54,-1742,-1541,-180,637,-121,490,26.100000,50.400002,979.479980
16/06/2023,18:41:11.720,-842,-6,-356,-1202,-1146,25,646,-135,466,26.100000,50.400002,979.479980
16/06/2023,18:41:11.730,-669,26,-409,-511,-1032,341,655,-135,466,26.100000,50.400002,979.479980
16/06/2023,18:41:11.739,-543,97,-218,-140,-936,466,645,-162,469,26.100000,50.400002,979.479980
16/06/2023,18:41:11.748,-418,158,-25,-107,-786,521,658,-141,453,26.100000,50.400002,979.479980
16/06/2023,18:41:11.758,-384,214,26,-107,-786,521,663,-148,439,26.100000,50.400002,979.479980
16/06/2023,18:41:11.767,-389,220,37,-199,-638,494,655,-166,436,26.100000,50.400002,979.479980
16/06/2023,18:41:11.777,-396,169,53,-279,-522,384,658,-175,423,26.100000,50.400002,979.479980
16/06/2023,18:41:11.786,-430,140,58,-359,-466,265,646,-159,439,26.100000,50.400002,979.479980
16/06/2023,18:41:11.795,-499,45,28,-434,-430,119,646,-159,439,26.100000,50.400002,979.479980
16/06/2023,18:41:11.804,-499,-48,28,-468,-332,-6,661,-177,415,26.100000,50.400002,979.429993
16/06/2023,18:41:11.814,-632,-69,34,-477,-273,-32,658,-178,397,26.100000,50.400002,979.429993
16/06/2023,18:41:11.823,-616,-50,29,-493,-239,-41,661,-171,394,26.100000,50.400002,979.429993
16/06/2023,18:41:11.836,-616,-50,29,-499,-174,-56,670,-187,396,26.100000,50.400002,979.429993
16/06/2023,18:41:11.842,-587,-29,50,-500,-80,-74,658,-193,390,26.100000,50.400002,979.429993
16/06/2023,18:41:11.852,-553,-8,74,-482,17,-84,670,-175,402,26.100000,50.400002,979.429993
16/06/2023,18:41:11.861,-541,8,111,-444,104,-93,651,-193,394,26.100000,50.400002,979.429993
16/06/2023,18:41:11.870,-555,18,158,-396,162,-99,658,-195,402,26.100000,50.400002,979.429993
16/06/2023,18:41:11.880,-576,22,221,-319,198,-116,669,-199,402,26.100000,50.400002,979.429993
16/06/2023,18:41:11.888,-617,20,265,-194,215,-157,669,-199,402,26.100000,50.400002,979.429993
16/06/2023,18:41:11.898,-654,22,291,-6,257,-223,669,-190,402,26.100000,50.400002,979.429993
16/06/2023,18:41:11.908,-702,3,340,209,371,-267,666,-181,415,26.100000,50.400002,979.429993
16/06/2023,18:41:11.917,-796,-13,471,360,448,-277,678,-186,405,26.100000,50.400002,979.429993
16/06/2023,18:41:11.926,-939,54,683,590,470,-265,681,-184,402,26.100000,50.400002,979.429993
16/06/2023,18:41:11.936,-1228,144,893,677,444,-169,661,-175,424,26.100000,50.400002,979.429993
16/06/2023,18:41:11.945,-1587,34,1077,362,446,-122,669,-163,400,26.100000,50.400002,979.429993
16/06/2023,18:41:11.955,-1753,-175,1120,-232,226,-43,666,-174,421,26.100000,50.400002,979.429993
16/06/2023,18:41:11.964,-1670,-206,886,-670,-160,125,664,-165,420,26.100000,50.400002,979.429993
16/06/2023,18:41:11.973,-1430,-201,611,-475,-337,302,664,-163,408,26.100000,50.400002,979.429993
16/06/2023,18:41:11.982,-1162,-272,482,-30,-375,481,664,-163,408,26.100000,50.400002,979.429993
16/06/2023,18:41:11.992,-932,-273,396,327,-295,489,670,-171,393,26.100000,50.400002,979.429993
16/06/2023,18:41:12.001,-682,-185,271,490,-85,347,669,-184,403,26.100000,50.400002,979.429993
16/06/2023,18:41:12.011,-539,28,71,786,267,161,672,-169,393,26.100000,50.400002,979.429993
16/06/2023,18:41:12.020,-682,258,-102,1251,724,-88,667,-178,405,26.100000,50.400002,979.429993
16/06/2023,18:41:12.030,-1001,291,-67,1420,1002,-436,678,-183,406,26.100000,50.400002,979.429993
16/06/2023,18:41:12.039,-1278,213,-106,1350,985,-793,658,-181,411,26.100000,50.400002,979.429993
16/06/2023,18:41:12.048,-1480,163,-307,1251,950,-915,664,-162,433,26.100000,50.400002,979.429993
16/06/2023,18:41:12.058,-1609,184,-385,1061,874,-907,685,-175,451,26.100000,50.400002,979.429993
16/06/2023,18:41:12.066,-1551,168,-271,706,816,-1032,685,-175,451,26.100000,50.400002,979.429993
16/06/2023,18:41:12.076,-1315,71,-119,272,668,-988,682,-138,466,26.100000,50.400002,979.429993
16/06/2023,18:41:12.086,-1107,-5,-102,-81,473,-677,666,-132,454,26.100000,50.400002,979.429993
16/06/2023,18:41:12.095,-971,-29,-144,-285,280,-422,678,-112,448,26.100000,50.400002,979.429993
16/06/2023,18:41:12.104,-789,-54,-210,-285,280,-422,670,-130,465,26.100000,50.400002,979.429993
16/06/2023,18:41:12.114,-600,-97,-269,-352,205,-301,679,-142,463,26.100000,50.400002,979.429993
16/06/2023,18:41:12.123,-507,-144,-307,-183,296,-274,667,-112,457,26.100000,50.400002,979.429993
16/06/2023,18:41:12.136,-526,-176,-351,87,465,-286,688,-120,462,26.100000,50.400002,979.429993
16/06/2023,18:41:12.142,-583,-187,-386,198,665,-348,667,-106,477,26.100000,50.400002,979.429993
16/06/2023,18:41:12.151,-583,-187,-386,208,913,-392,667,-106,477,26.100000,50.400002,979.429993
16/06/2023,18:41:12.160,-644,-198,-382,170,1072,-343,664,-115,471,26.100000,50.400002,979.429993
16/06/2023,18:41:12.170,-855,-197,-277,227,1143,-227,651,-102,468,26.100000,50.400002,979.429993
16/06/2023,18:41:12.179,-855,-197,-277,490,1204,-122,655,-96,471,26.100000,50.400002,979.429993
16/06/2023,18:41:12.189,-978,-199,-225,883,1320,1,672,-102,502,26.100000,50.400002,979.429993
16/06/2023,18:41:12.198,-1109,-161,-156,1408,1295,50,664,-85,489,26.100000,50.400002,979.429993
16/06/2023,18:41:12.208,-1217,-187,-88,1601,1170,275,640,-82,534,26.100000,50.400002,979.429993
16/06/2023,18:41:12.217,-1287,-256,-41,1405,1095,597,643,-84,522,26.100000,50.400002,979.429993
16/06/2023,18:41:12.226,-1242,-265,5,1137,986,679,630,-106,547,26.100000,50.400002,979.429993
16/06/2023,18:41:12.236,-1116,-277,35,955,872,550,618,-96,529,26.100000,50.400002,979.429993
16/06/2023,18:41:12.244,-994,-299,45,845,745,363,618,-96,529,26.100000,50.400002,979.429993
16/06/2023,18:41:12.254,-905,-303,40,806,624,247,646,-78,543,26.100000,50.400002,979.429993
16/06/2023,18:41:12.264,-848,-286,2,822,587,167,633,-84,558,26.100000,50.400002,979.429993
16/06/2023,18:41:12.273,-810,-268,-19,832,638,161,625,-87,567,26.100000,50.400002,979.429993
16/06/2023,18:41:12.282,-823,-231,-8,831,710,158,622,-81,562,26.100000,50.400002,979.429993
16/06/2023,18:41:12.292,-885,-165,20,828,732,142,618,-73,568,26.100000,50.400002,979.429993
16/06/2023,18:41:12.301,-943,-97,57,824,648,116,627,-63,559,26.100000,50.400002,979.429993
16/06/2023,18:41:12.311,-967,-58,77,749,524,64,630,-69,579,26.100000,50.400002,979.429993
16/06/2023,18:41:12.320,-960,-39,54,596,416,17,621,-66,577,26.100000,50.400002,979.429993
16/06/2023,18:41:12.329,-944,-48,8,445,323,-27,609,-60,601,26.100000,50.400002,979.429993
16/06/2023,18:41:12.338,-939,-86,-31,336,253,-56,609,-60,601,26.100000,50.400002,979.429993
16/06/2023,18:41:12.347,-936,-126,-68,270,226,-66,603,-43,574,26.100000,50.400002,979.429993
16/06/2023,18:41:12.357,-932,-171,-88,227,235,-51,619,-60,585,26.100000,50.400002,979.429993
16/06/2023,18:41:12.367,-938,-212,-106,213,261,-20,610,-64,591,26.100000,50.400002,979.429993
16/06/2023,18:41:12.376,-951,-232,-134,190,273,4,639,-34,594,26.100000,50.400002,979.429993
16/06/2023,18:41:12.386,-950,-248,-145,162,315,28,598,-54,582,26.100000,50.400002,979.429993
16/06/2023,18:41:12.395,-950,-263,-145,133,340,52,604,-36,589,26.100000,50.400002,979.429993
16/06/2023,18:41:12.404,-963,-269,-166,133,331,70,598,-30,586,26.100000,50.400002,979.429993
16/06/2023,18:41:12.414,-995,-274,-182,161,301,73,610,-39,595,26.100000,50.400002,979.429993
16/06/2023,18:41:12.423,-1047,-285,-169,204,289,66,610,-42,601,26.100000,50.400002,979.429993
16/06/2023,18:41:12.432,-1077,-311,-138,316,323,64,610,-42,601,26.100000,50.400002,979.429993
16/06/2023,18:41:12.442,-1105,-318,-62,452,392,55,621,-28,588,26.100000,50.400002,979.429993
16/06/2023,18:41:12.451,-1137,-317,80,452,392,55,607,-28,604,26.100000,50.400002,979.429993
16/06/2023,18:41:12.460,-1153,-304,231,567,383,36,606,-27,595,26.100000,50.400002,979.429993
16/06/2023,18:41:12.470,-1164,-278,325,620,241,20,600,-33,607,26.100000,50.400002,979.429993
16/06/2023,18:41:12.479,-1171,-282,330,545,15,-19,607,-25,606,26.100000,50.400002,979.429993
16/06/2023,18:41:12.492,-1158,-284,273,332,-195,-66,586,-18,615,26.100000,50.400002,979.429993
16/06/2023,18:41:12.498,-1185,-320,264,75,-338,-96,600,-15,598,26.100000,50.400002,979.429993
16/06/2023,18:41:12.507,-1297,-400,315,-94,-487,-95,610,-18,616,26.100000,50.400002,979.429993
16/06/2023,18:41:12.516,-1297,-400,315,-176,-751,-51,610,-18,616,26.100000,50.400002,979.429993
16/06/2023,18:41:12.525,-1405,-462,350,-221,-1039,6,603,-13,595,26.100000,50.400002,979.429993
16/06/2023,18:41:12.535,-1437,-525,298,-339,-1152,59,619,-7,598,26.100000,50.400002,979.429993
16/06/2023,18:41:12.545,-1341,-562,202,-579,-1165,115,618,7,589,26.100000,50.400002,979.429993
16/06/2023,18:41:12.554,-1224,-538,155,-856,-1317,220,634,-18,565,26.100000,50.400002,979.429993
16/06/2023,18:41:12.564,-1157,-483,103,-958,-1533,269,634,-18,565,26.100000,50.400002,979.429993
16/06/2023,18:41:12.573,-1083,-444,26,-1054,-1679,273,643,-16,540,26.100000,50.400002,979.429993
16/06/2023,18:41:12.582,-1023,-435,-117,-1327,-1635,314,658,-25,546,26.100000,50.400002,979.429993
16/06/2023,18:41:12.592,-1043,-380,-344,-1630,-1505,298,651,-34,534,26.100000,50.400002,979.429993
16/06/2023,18:41:12.601,-1139,-312,-513,-1961,-1287,126,675,-27,525,26.100000,50.400002,979.429993
16/06/2023,18:41:12.610,-1215,-274,-620,-2181,-1073,-45,675,-27,525,26.100000,50.400002,979.429993
16/06/2023,18:41:12.619,-1283,-201,-732,-1981,-964,-242,669,-24,511,26.100000,50.400002,979.429993
16/06/2023,18:41:12.629,-1317,-230,-778,-1317,-839,-362,687,-45,486,26.100000,50.400002,979.429993
16/06/2023,18:41:12.639,-1368,-392,-744,-519,-790,-171,699,-34,499,26.100000,50.400002,979.429993
16/06/2023,18:41:12.648,-1450,-520,-495,130,-847,95,687,-36,484,26.100000,50.400002,979.429993
16/06/2023,18:41:12.657,-1367,-538,55,237,-1129,233,682,-39,493,26.100000,50.400002,979.429993
16/06/2023,18:41:12.667,-1281,-415,517,-503,-1205,277,688,-39,498,26.100000,50.400002,979.429993
16/06/2023,18:41:12.676,-1319,-213,587,-1469,-1251,59,693,-42,486,26.100000,50.400002,979.429993
16/06/2023,18:41:12.688,-1195,-121,329,-1987,-1320,-152,697,-46,477,26.100000,50.400002,979.429993
16/06/2023,18:41:12.695,-970,-106,-186,-1827,-1315,67,709,-51,462,26.100000,50.400002,979.429993
16/06/2023,18:41:12.703,-866,2,-485,-1433,-1090,298,709,-51,462,26.100000,50.400002,979.429993
16/06/2023,18:41:12.713,-748,117,-359,-1178,-917,429,714,-39,451,26.100000,50.400002,979.429993
16/06/2023,18:41:12.723,-626,195,-180,-1085,-884,471,706,-64,463,26.100000,50.400002,979.429993
16/06/2023,18:41:12.732,-582,253,-111,-1156,-805,399,720,-67,442,26.100000,50.400002,979.429993
16/06/2023,18:41:12.741,-534,243,-121,-1227,-688,300,709,-57,444,26.100000,50.400002,979.429993
16/06/2023,18:41:12.751,-498,171,-114,-1269,-568,250,721,-57,411,26.100000,50.400002,979.429993
16/06/2023,18:41:12.760,-553,85,-110,-1332,-494,142,720,-67,424,26.100000,50.400002,979.429993
16/06/2023,18:41:12.770,-652,-14,-110,-1332,-347,93,730,-72,408,26.100000,50.400002,979.429993
16/06/2023,18:41:12.779,-682,-105,-63,-1332,-347,93,724,-63,423,26.100000,50.400002,979.429993
16/06/2023,18:41:12.788,-675,-129,-60,-1275,-264,74,723,-66,408,26.100000,50.400002,979.429993
16/06/2023,18:41:12.797,-674,-98,-97,-1202,-199,151,723,-66,408,26.100000,50.400002,979.429993
16/06/2023,18:41:12.807,-694,-86,-100,-1113,-132,224,735,-66,402,26.100000,50.400002,979.429993
16/06/2023,18:41:12.817,-689,-72,-111,-973,-13,289,726,-75,403,26.100000,50.400002,979.429993
16/06/2023,18:41:12.826,-646,-35,-77,-848,35,311,729,-81,393,26.100000,50.400002,979.429993
16/06/2023,18:41:12.835,-629,13,-15,-737,80,302,718,-100,403,26.100000,50.400002,979.429993
16/06/2023,18:41:12.845,-620,75,54,-662,141,275,706,-90,421,26.100000,50.099998,979.429993
16/06/2023,18:41:12.854,-611,73,89,-606,199,237,706,-90,421,26.100000,50.099998,979.429993
16/06/2023,18:41:12.863,-611,16,117,-605,290,180,721,-90,406,26.100000,50.099998,979.429993
16/06/2023,18:41:12.873,-637,16,117,-591,370,152,726,-82,402,26.100000,50.099998,979.429993
16/06/2023,18:41:12.881,-714,-9,203,-584,409,131,726,-82,402,26.100000,50.099998,979.429993
16/06/2023,18:41:12.891,-795,-40,282,-591,433,105,744,-94,411,26.100000,50.099998,979.429993
16/06/2023,18:41:12.901,-890,-81,329,-562,447,74,736,-105,411,26.100000,50.099998,979.429993
16/06/2023,18:41:12.910,-995,-96,341,-439,485,-10,721,-100,409,26.100000,50.099998,979.429993
16/06/2023,18:41:12.920,-1141,-185,379,-432,442,-29,721,-81,408,26.100000,50.099998,979.429993
16/06/2023,18:41:12.929,-1335,-250,463,-464,297,-57,718,-90,426,26.100000,50.099998,979.429993
16/06/2023,18:41:12.938,-1486,-233,650,-550,130,-85,723,-88,436,26.100000,50.099998,979.429993
16/06/2023,18:41:12.948,-1565,-237,813,-623,-38,-36,718,-79,426,26.100000,50.099998,979.429993
16/06/2023,18:41:12.957,-1539,-291,828,-555,-183,102,717,-63,426,26.100000,50.099998,979.429993
16/06/2023,18:41:12.966,-1371,-308,744,-459,-244,320,717,-63,426,26.100000,50.099998,979.429993
16/06/2023,18:41:12.975,-1163,-184,640,-417,-201,504,700,-78,414,26.100000,50.099998,979.429993
16/06/2023,18:41:12.985,-939,-46,529,-501,-157,503,715,-100,415,26.100000,50.099998,979.429993
16/06/2023,18:41:12.995,-713,19,396,-615,-114,425,718,-106,426,26.100000,50.099998,979.429993
16/06/2023,18:41:13.004,-579,42,280,-689,-66,357,724,-84,414,26.100000,50.099998,979.429993
16/06/2023,18:41:13.013,-534,103,186,-582,28,325,709,-117,421,26.100000,50.099998,979.429993
16/06/2023,18:41:13.023,-666,247,3,-130,226,268,730,-111,405,26.100000,50.099998,979.429993
16/06/2023,18:41:13.032,-964,270,-79,222,579,22,715,-106,402,26.100000,50.099998,979.429993
16/06/2023,18:41:13.041,-1183,189,-96,156,644,-268,721,-109,421,26.100000,50.099998,979.429993
16/06/2023,18:41:13.051,-1327,169,-245,176,714,-491,717,-103,429,26.100000,50.099998,979.429993
16/06/2023,18:41:13.059,-1522,196,-273,323,800,-695,717,-103,429,26.100000,50.099998,979.429993
16/06/2023,18:41:13.069,-1602,179,-130,395,742,-911,705,-93,447,26.100000,50.099998,979.429993
16/06/2023,18:41:13.079,-1475,55,77,245,586,-801,714,-84,439,26.100000,50.099998,979.429993
16/06/2023,18:41:13.088,-1291,-115,224,-85,323,-487,723,-84,438,26.100000,50.099998,979.429993
16/06/2023,18:41:13.098,-995,-206,116,-455,54,-278,726,-87,441,26.100000,50.099998,979.429993
16/06/2023,18:41:13.107,-606,-175,-116,-666,-8,-267,718,-61,454,26.100000,50.099998,979.429993
16/06/2023,18:41:13.116,-380,-132,-200,-733,163,-272,733,-69,444,26.100000,50.099998,979.429993
16/06/2023,18:41:13.126,-309,-133,-203,-652,259,-324,721,-73,460,26.100000,50.099998,979.429993
16/06/2023,18:41:13.135,-324,-173,-250,-652,259,-324,726,-85,423,26.100000,50.099998,979.429993
16/06/2023,18:41:13.144,-477,-252,-404,-510,426,-416,714,-63,465,26.100000,50.099998,979.429993
16/06/2023,18:41:13.153,-714,-312,-508,-443,786,-468,714,-63,465,26.100000,50.099998,979.429993
16/06/2023,18:41:13.163,-913,-293,-509,-730,1085,-437,718,-55,454,26.100000,50.099998,979.429993
16/06/2023,18:41:13.173,-1074,-293,-486,-1162,1006,-317,724,-75,451,26.100000,50.099998,979.429993
16/06/2023,18:41:13.182,-1217,-404,-351,-1253,1096,-145,705,-64,474,26.100000,50.099998,979.429993
16/06/2023,18:41:13.191,-1329,-516,-130,-704,1183,183,697,-66,460,26.100000,50.099998,979.429993
16/06/2023,18:41:13.201,-1340,-545,60,-37,1042,488,694,-72,475,26.100000,50.099998,979.429993
16/06/2023,18:41:13.210,-1340,-519,150,348,693,576,697,-75,502,26.100000,50.099998,979.429993
16/06/2023,18:41:13.219,-1235,-519,150,402,482,489,702,-90,487,26.100000,50.099998,979.429993
16/06/2023,18:41:13.229,-1114,-468,199,259,455,338,700,-96,481,26.100000,50.099998,979.429993
16/06/2023,18:41:13.238,-1032,-411,220,-34,476,352,700,-96,481,26.100000,50.099998,979.429993
16/06/2023,18:41:13.247,-1028,-302,154,-371,613,429,691,-76,507,26.100000,50.099998,979.429993
16/06/2023,18:41:13.257,-1022,-210,71,-580,723,407,691,-84,499,26.100000,50.099998,979.429993
16/06/2023,18:41:13.266,-966,-168,13,-676,757,352,684,-96,525,26.100000,50.099998,979.429993
16/06/2023,18:41:13.276,-915,-136,1,-727,754,259,684,-111,499,26.100000,50.099998,979.429993
16/06/2023,18:41:13.285,-877,-112,13,-768,729,172,670,-100,531,26.100000,50.099998,979.429993
16/06/2023,18:41:13.294,-848,-92,3,-828,701,123,676,-102,505,26.100000,50.099998,979.429993
16/06/2023,18:41:13.304,-848,-51,-48,-812,641,91,679,-103,525,26.100000,50.099998,979.429993
16/06/2023,18:41:13.313,-853,-20,-111,-729,598,58,676,-111,532,26.100000,50.099998,979.429993
16/06/2023,18:41:13.322,-850,-17,-152,-616,541,40,670,-105,523,26.100000,50.099998,979.429993
16/06/2023,18:41:13.331,-849,-19,-215,-516,499,28,670,-105,523,26.100000,50.099998,979.429993
16/06/2023,18:41:13.341,-849,-37,-273,-421,507,4,661,-117,525,26.100000,50.099998,979.429993
16/06/2023,18:41:13.351,-862,-64,-280,-396,532,15,661,-117,525,26.100000,50.099998,979.429993
16/06/2023,18:41:13.360,-896,-97,-267,-421,569,23,672,-118,541,26.100000,50.099998,979.429993
16/06/2023,18:41:13.369,-945,-120,-271,-398,618,30,661,-114,528,26.100000,50.099998,979.429993
16/06/2023,18:41:13.379,-984,-164,-240,-347,673,35,651,-130,532,26.100000,50.099998,979.429993
16/06/2023,18:41:13.391,-1024,-217,-188,-324,715,55,670,-130,561,26.100000,50.099998,979.429993
16/06/2023,18:41:13.397,-1061,-253,-161,-301,733,81,642,-124,543,26.100000,50.099998,979.429993
16/06/2023,18:41:13.407,-1088,-294,-123,-287,748,96,652,-138,565,26.100000,50.099998,979.429993
16/06/2023,18:41:13.416,-1108,-303,-82,-279,750,100,652,-138,565,26.100000,50.099998,979.429993
16/06/2023,18:41:13.425,-1095,-284,-36,-246,777,84,639,-139,546,26.100000,50.099998,979.429993
16/06/2023,18:41:13.435,-1069,-265,105,-229,801,52,648,-135,571,26.100000,50.099998,979.429993
16/06/2023,18:41:13.444,-1058,-245,264,-247,633,28,652,-145,571,26.100000,50.099998,979.429993
16/06/2023,18:41:13.454,-1052,-232,294,-324,395,0,636,-130,571,26.100000,50.099998,979.429993
16/06/2023,18:41:13.463,-1078,-233,213,-407,203,-28,636,-145,580,26.100000,50.099998,979.429993
16/06/2023,18:41:13.472,-1121,-242,65,-445,76,-65,657,-144,574,26.100000,50.099998,979.429993
16/06/2023,18:41:13.482,-1129,-253,-47,-445,54,-65,624,-141,571,26.100000,50.099998,979.429993
16/06/2023,18:41:13.491,-1115,-237,-36,-389,50,-60,640,-141,564,26.100000,50.099998,979.429993
16/06/2023,18:41:13.500,-1115,-216,105,-316,62,-44,645,-142,558,26.100000,50.099998,979.429993
16/06/2023,18:41:13.509,-1154,-271,259,-313,35,-50,645,-142,558,26.100000,50.099998,979.429993
16/06/2023,18:41:13.519,-1215,-413,296,-418,-100,-78,649,-142,559,26.100000,50.099998,979.429993
16/06/2023,18:41:13.529,-1306,-568,236,-584,-306,-87,630,-154,559,26.100000,50.099998,979.429993
16/06/2023,18:41:13.538,-1414,-675,98,-769,-542,-71,631,-157,567,26.100000,50.099998,979.429993
16/06/2023,18:41:13.547,-1412,-718,-36,-994,-664,-61,636,-142,541,26.100000,50.099998,979.429993
16/06/2023,18:41:13.557,-1412,-691,-36,-1223,-706,-54,642,-160,535,26.100000,50.099998,979.429993
16/06/2023,18:41:13.566,-1247,-691,-76,-1349,-723,-66,670,-184,523,26.100000,50.099998,979.429993
16/06/2023,18:41:13.575,-1087,-635,13,-1372,-789,-49,658,-193,535,26.100000,50.099998,979.429993
16/06/2023,18:41:13.585,-1017,-572,127,-1405,-922,-11,645,-201,513,26.100000,50.099998,979.429993
16/06/2023,18:41:13.594,-980,-488,130,-1483,-1065,51,652,-195,501,26.100000,50.099998,979.429993
16/06/2023,18:41:13.603,-964,-386,6,-1663,-1100,81,652,-195,501,26.100000,50.099998,979.429993
16/06/2023,18:41:13.612,-935,-347,-178,-1873,-1030,61,663,-189,501,26.100000,50.099998,979.429993
16/06/2023,18:41:13.622,-922,-332,-339,-2092,-930,33,682,-208,483,26.100000,50.099998,979.429993
16/06/2023,18:41:13.632,-942,-288,-502,-2323,-786,17,660,-238,492,26.100000,50.099998,979.429993
16/06/2023,18:41:13.641,-1026,-226,-617,-2436,-666,-49,651,-225,465,26.100000,50.099998,979.429993
16/06/2023,18:41:13.650,-1152,-119,-697,-2165,-743,-220,669,-231,447,26.100000,50.099998,979.429993
16/06/2023,18:41:13.660,-1164,-72,-728,-1525,-868,-414,660,-250,445,26.100000,50.099998,979.429993
16/06/2023,18:41:13.669,-1143,-98,-635,-735,-955,-458,672,-249,447,26.100000,50.099998,979.429993
16/06/2023,18:41:13.678,-1206,-147,-428,-13,-1026,-374,684,-261,417,26.100000,50.099998,979.429993
16/06/2023,18:41:13.688,-1315,-211,-125,218,-974,-231,684,-232,421,26.100000,50.099998,979.429993
16/06/2023,18:41:13.697,-1414,-268,205,-265,-906,-139,684,-232,421,26.100000,50.099998,979.429993
16/06/2023,18:41:13.706,-1434,-368,369,-1393,-996,-67,658,-240,435,26.100000,50.099998,979.429993
16/06/2023,18:41:13.716,-1298,-538,200,-2321,-1267,125,681,-243,417,26.100000,50.099998,979.429993
16/06/2023,18:41:13.725,-1115,-446,-85,-2479,-1393,339,675,-256,379,26.100000,50.099998,979.429993
16/06/2023,18:41:13.735,-987,-156,-228,-2147,-1207,277,685,-252,372,26.100000,50.099998,979.429993
16/06/2023,18:41:13.744,-889,-66,-245,-1842,-974,246,690,-256,337,26.100000,50.099998,979.429993
16/06/2023,18:41:13.753,-840,-77,-206,-1575,-824,261,679,-267,337,26.100000,50.099998,979.429993
16/06/2023,18:41:13.763,-801,-73,-151,-1386,-768,359,685,-268,322,26.100000,50.099998,979.429993
16/06/2023,18:41:13.772,-797,-44,-128,-1308,-732,382,700,-279,322,26.100000,50.099998,979.429993
16/06/2023,18:41:13.782,-807,-20,-101,-1246,-661,376,654,-250,322,26.100000,50.099998,979.429993
16/06/2023,18:41:13.790,-797,-35,-79,-1236,-606,373,654,-250,322,26.100000,50.099998,979.429993
16/06/2023,18:41:13.800,-796,-57,-70,-1207,-542,413,682,-256,285,26.100000,50.099998,979.429993
16/06/2023,18:41:13.810,-800,-70,-74,-1159,-496,467,679,-276,309,26.100000,50.099998,979.429993
16/06/2023,18:41:13.819,-798,-77,-90,-1053,-434,523,669,-283,277,26.100000,50.099998,979.429993
16/06/2023,18:41:13.828,-789,-26,-61,-1053,-434,523,679,-286,285,26.100000,50.099998,979.429993
16/06/2023,18:41:13.838,-752,42,-25,-960,-360,527,660,-288,286,26.100000,50.099998,979.429993
16/06/2023,18:41:13.847,-686,86,-10,-876,-276,495,666,-292,273,26.100000,50.099998,979.429993
16/06/2023,18:41:13.856,-648,141,14,-807,-233,449,675,-309,277,26.100000,50.099998,979.429993
16/06/2023,18:41:13.866,-628,195,52,-770,-172,384,666,-312,262,26.100000,50.099998,979.429993
16/06/2023,18:41:13.875,-617,163,56,-749,-105,327,673,-303,279,26.100000,50.099998,979.429993
16/06/2023,18:41:13.884,-617,163,56,-783,-33,270,673,-303,279,26.100000,50.099998,979.429993
16/06/2023,18:41:13.893,-650,69,71,-761,59,226,658,-310,268,26.100000,49.799999,979.340027
16/06/2023,18:41:13.903,-689,24,139,-715,116,194,667,-304,274,26.100000,49.799999,979.340027
16/06/2023,18:41:13.913,-718,20,203,-674,144,153,637,-294,235,26.100000,49.799999,979.340027
16/06/2023,18:41:13.922,-751,25,264,-653,144,116,664,-316,256,26.100000,49.799999,979.340027
16/06/2023,18:41:13.931,-777,-8,317,-630,153,79,619,-282,268,26.100000,49.799999,979.340027
16/06/2023,18:41:13.941,-831,-54,362,-607,141,57,648,-292,262,26.100000,49.799999,979.340027
16/06/2023,18:41:13.950,-900,-61,449,-456,86,48,660,-309,247,26.100000,49.799999,979.340027
16/06/2023,18:41:13.960,-998,-150,585,-476,2,15,661,-289,259,26.100000,49.799999,979.340027
16/06/2023,18:41:13.969,-1111,-241,646,-592,-107,-25,660,-304,231,26.100000,49.799999,979.340027
16/06/2023,18:41:13.978,-1188,-232,644,-676,-171,-43,660,-304,231,26.100000,49.799999,979.340027
16/06/2023,18:41:13.988,-1188,-193,644,-731,-202,-42,663,-300,253,26.100000,49.799999,979.340027
16/06/2023,18:41:13.997,-1116,-134,631,-704,-177,39,667,-319,243,26.100000,49.799999,979.340027
16/06/2023,18:41:14.006,-1071,-83,596,-652,-119,140,672,-304,234,26.100000,49.799999,979.340027
16/06/2023,18:41:14.016,-1026,-30,530,-598,-106,216,661,-288,222,26.100000,49.799999,979.340027
16/06/2023,18:41:14.025,-946,17,458,-544,-107,261,657,-306,235,26.100000,49.799999,979.340027
16/06/2023,18:41:14.034,-832,38,350,-447,-81,292,649,-291,238,26.100000,49.799999,979.340027
16/06/2023,18:41:14.044,-713,37,238,-310,46,319,651,-315,258,26.100000,49.799999,979.340027
16/06/2023,18:41:14.053,-640,43,180,-134,213,362,649,-301,232,26.100000,49.799999,979.340027
16/06/2023,18:41:14.062,-745,159,139,218,429,379,649,-301,232,26.100000,49.799999,979.340027
16/06/2023,18:41:14.071,-1055,219,139,581,798,160,636,-304,255,26.100000,49.799999,979.340027
16/06/2023,18:41:14.081,-1366,99,153,644,1071,-126,640,-312,247,26.100000,49.799999,979.340027
16/06/2023,18:41:14.091,-1562,14,14,720,1061,-415,655,-283,264,26.100000,49.799999,979.340027
16/06/2023,18:41:14.100,-1596,19,-147,861,898,-591,648,-291,273,26.100000,49.799999,979.340027
16/06/2023,18:41:14.109,-1459,-7,-90,872,752,-523,655,-310,300,26.100000,49.799999,979.340027
16/06/2023,18:41:14.119,-1270,6,7,698,588,-260,684,-295,316,26.100000,49.799999,979.340027
16/06/2023,18:41:14.128,-1026,135,9,481,364,-143,658,-300,315,26.100000,49.799999,979.340027
16/06/2023,18:41:14.138,-780,228,-36,329,206,-175,672,-288,324,26.100000,49.799999,979.340027
16/06/2023,18:41:14.147,-635,236,-110,256,190,-181,667,-295,310,26.100000,49.799999,979.340027
16/06/2023,18:41:14.156,-580,192,-137,166,362,-175,667,-295,310,26.100000,49.799999,979.340027
16/06/2023,18:41:14.165,-613,114,-147,83,518,-266,670,-288,316,26.100000,49.799999,979.340027
16/06/2023,18:41:14.175,-644,21,-209,83,518,-266,682,-286,328,26.100000,49.799999,979.340027
16/06/2023,18:41:14.184,-650,-47,-287,33,608,-423,667,-298,325,26.100000,49.799999,979.340027
16/06/2023,18:41:14.194,-679,-94,-370,-32,722,-596,654,-265,333,26.100000,49.799999,979.340027
16/06/2023,18:41:14.203,-716,-129,-437,-226,865,-702,679,-289,333,26.100000,49.799999,979.340027
16/06/2023,18:41:14.212,-745,-134,-424,-546,931,-731,675,-280,334,26.100000,49.799999,979.340027
16/06/2023,18:41:14.222,-824,-151,-352,-775,973,-729,690,-280,345,26.100000,49.799999,979.340027
16/06/2023,18:41:14.231,-969,-234,-264,-663,1069,-684,684,-256,367,26.100000,49.799999,979.340027
16/06/2023,18:41:14.241,-1151,-383,-161,-137,1246,-613,699,-273,357,26.100000,49.799999,979.340027
16/06/2023,18:41:14.249,-1151,-383,-161,562,1318,-287,699,-273,357,26.100000,49.799999,979.340027
16/06/2023,18:41:14.259,-1369,-546,-29,994,1264,197,685,-264,376,26.100000,49.799999,979.340027
16/06/2023,18:41:14.269,-1508,-588,59,1100,1081,563,676,-273,394,26.100000,49.799999,979.340027
16/06/2023,18:41:14.278,-1459,-511,99,1104,825,640,687,-255,397,26.100000,49.799999,979.340027
16/06/2023,18:41:14.287,-1269,-435,111,1126,597,552,690,-253,420,26.100000,49.799999,979.340027
16/06/2023,18:41:14.297,-1074,-377,101,1082,495,522,664,-252,421,26.100000,49.799999,979.340027
16/06/2023,18:41:14.306,-947,-326,107,897,489,487,669,-262,432,26.100000,49.799999,979.340027
16/06/2023,18:41:14.316,-850,-270,112,610,504,404,664,-274,421,26.100000,49.799999,979.340027
16/06/2023,18:41:14.325,-774,-205,84,287,535,323,654,-267,436,26.100000,49.799999,979.340027
16/06/2023,18:41:14.334,-754,-144,33,29,633,252,655,-271,466,26.100000,49.799999,979.340027
16/06/2023,18:41:14.343,-792,-92,-12,-145,698,206,655,-271,466,26.100000,49.799999,979.340027
16/06/2023,18:41:14.352,-853,-37,-57,-212,667,158,655,-253,441,26.100000,49.799999,979.340027
16/06/2023,18:41:14.362,-883,12,-127,-189,621,93,651,-265,442,26.100000,49.799999,979.340027
16/06/2023,18:41:14.372,-884,55,-194,-98,595,46,657,-265,453,26.100000,49.799999,979.340027
16/06/2023,18:41:14.381,-892,71,-218,-11,598,19,636,-277,460,26.100000,49.799999,979.340027
16/06/2023,18:41:14.390,-891,48,-192,31,620,-11,639,-273,459,26.100000,49.799999,979.340027
16/06/2023,18:41:14.400,-899,17,-129,17,619,-37,640,-256,466,26.100000,49.799999,979.340027
16/06/2023,18:41:14.409,-923,-20,-64,-4,608,-64,643,-274,481,26.100000,49.799999,979.340027
16/06/2023,18:41:14.419,-945,-95,-19,-13,571,-76,642,-264,496,26.100000,49.799999,979.340027
16/06/2023,18:41:14.428,-966,-193,5,-32,563,-52,651,-253,471,26.100000,49.799999,979.340027
16/06/2023,18:41:14.437,-991,-247,13,-53,521,-13,651,-253,471,26.100000,49.799999,979.340027
16/06/2023,18:41:14.446,-1003,-262,-18,-80,454,34,631,-271,480,26.100000,49.799999,979.340027
16/06/2023,18:41:14.456,-1009,-254,-72,-72,382,59,637,-274,489,26.100000,49.799999,979.340027
16/06/2023,18:41:14.465,-1003,-252,-118,-35,321,64,622,-265,504,26.100000,49.799999,979.340027
16/06/2023,18:41:14.475,-990,-252,-149,-1,297,64,624,-259,501,26.100000,49.799999,979.340027
16/06/2023,18:41:14.487,-994,-233,-170,34,306,64,621,-267,486,26.100000,49.799999,979.340027
16/06/2023,18:41:14.494,-1037,-231,-147,95,300,78,633,-267,496,26.100000,49.799999,979.340027
16/06/2023,18:41:14.503,-1111,-237,-107,128,305,92,646,-267,516,26.100000,49.799999,979.340027
16/06/2023,18:41:14.512,-1163,-207,-81,128,305,92,621,-259,507,26.100000,49.799999,979.340027
16/06/2023,18:41:14.522,-1163,-185,-50,199,297,105,627,-265,487,26.100000,49.799999,979.340027
16/06/2023,18:41:14.530,-1145,-186,-15,327,245,100,627,-265,487,26.100000,49.799999,979.340027
16/06/2023,18:41:14.540,-1112,-196,14,451,184,78,609,-265,538,26.100000,49.799999,979.340027
16/06/2023,18:41:14.550,-1066,-247,36,514,129,33,609,-265,538,26.100000,49.799999,979.340027
16/06/2023,18:41:14.559,-1034,-330,72,449,118,-11,615,-252,522,26.100000,49.799999,979.340027
16/06/2023,18:41:14.569,-1031,-402,132,249,96,-26,606,-265,514,26.100000,49.799999,979.340027
16/06/2023,18:41:14.578,-1102,-468,223,-50,98,-35,618,-264,516,26.100000,49.799999,979.340027
16/06/2023,18:41:14.587,-1236,-562,274,-335,12,-56,610,-252,547,26.100000,49.799999,979.340027
16/06/2023,18:41:14.597,-1236,-562,274,-552,-255,-46,627,-276,517,26.100000,49.799999,979.340027
16/06/2023,18:41:14.606,-1386,-634,224,-682,-499,-6,621,-247,517,26.100000,49.799999,979.340027
16/06/2023,18:41:14.615,-1471,-665,154,-766,-674,15,621,-247,517,26.100000,49.799999,979.340027
16/06/2023,18:41:14.625,-1424,-651,114,-861,-789,17,607,-262,510,26.100000,49.799999,979.340027
16/06/2023,18:41:14.634,-1296,-599,153,-917,-869,51,621,-265,522,26.100000,49.799999,979.340027
16/06/2023,18:41:14.643,-1184,-534,273,-956,-1033,97,621,-282,495,26.100000,49.799999,979.340027
16/06/2023,18:41:14.653,-1143,-461,376,-1099,-1258,141,628,-288,492,26.100000,49.799999,979.340027
16/06/2023,18:41:14.662,-1150,-371,374,-1306,-1549,170,616,-262,478,26.100000,49.799999,979.340027
16/06/2023,18:41:14.672,-1106,-317,219,-1551,-1720,165,633,-276,483,26.100000,49.799999,979.340027
16/06/2023,18:41:14.681,-1081,-304,-20,-1872,-1631,142,628,-283,450,26.100000,49.799999,979.340027
16/06/2023,18:41:14.690,-1122,-286,-287,-2250,-1468,57,639,-292,439,26.100000,49.799999,979.340027
16/06/2023,18:41:14.699,-1196,-214,-555,-2420,-1463,-66,639,-292,439,26.100000,49.799999,979.340027
16/06/2023,18:41:14.708,-1221,-116,-784,-2205,-1565,-250,645,-286,417,26.100000,49.799999,979.340027
16/06/2023,18:41:14.718,-1152,-140,-917,-1695,-1442,-404,657,-291,412,26.100000,49.799999,979.340027
16/06/2023,18:41:14.728,-1130,-204,-971,-1040,-1134,-370,673,-307,372,26.100000,49.799999,979.340027
16/06/2023,18:41:14.737,-1170,-282,-837,-348,-842,-194,658,-304,366,26.100000,49.799999,979.340027
16/06/2023,18:41:14.747,-1236,-453,-381,-1,-728,121,667,-306,372,26.100000,49.799999,979.340027
16/06/2023,18:41:14.756,-1382,-539,210,-124,-844,436,657,-315,364,26.100000,49.799999,979.340027
16/06/2023,18:41:14.765,-1488,-446,580,-717,-1204,482,654,-292,358,26.100000,49.799999,979.340027
16/06/2023,18:41:14.775,-1447,-246,539,-1498,-1507,277,651,-322,322,26.100000,49.799999,979.340027
16/06/2023,18:41:14.784,-1268,-71,128,-1997,-1456,190,663,-328,318,26.100000,49.799999,979.340027
16/06/2023,18:41:14.793,-1046,-1,-229,-1813,-1164,310,663,-328,318,26.100000,49.799999,979.340027
16/06/2023,18:41:14.802,-873,-14,-271,-1433,-1034,454,652,-321,294,26.100000,49.799999,979.340027
16/06/2023,18:41:14.812,-721,-6,-181,-1171,-960,515,669,-331,264,26.100000,49.799999,979.340027
16/06/2023,18:41:14.821,-619,60,-109,-1090,-804,469,663,-324,280,26.100000,49.799999,979.340027
16/06/2023,18:41:14.830,-574,100,-106,-1134,-635,432,646,-331,258,26.100000,49.799999,979.340027
16/06/2023,18:41:14.840,-566,117,-101,-1192,-515,385,655,-334,226,26.100000,49.799999,979.340027
16/06/2023,18:41:14.850,-544,124,-97,-1223,-433,297,652,-340,229,26.100000,49.799999,979.340027
16/06/2023,18:41:14.859,-534,92,-114,-1234,-334,194,633,-342,220,26.100000,49.799999,979.340027
16/06/2023,18:41:14.868,-586,13,-107,-1234,-334,194,633,-339,222,26.100000,49.799999,979.340027
16/06/2023,18:41:14.881,-622,-46,-82,-1173,-215,175,639,-325,199,26.100000,49.799999,979.340027
16/06/2023,18:41:14.886,-623,-49,-61,-1079,-136,184,639,-325,199,26.100000,49.799999,979.340027
16/06/2023,18:41:14.896,-622,-46,-55,-975,-75,183,648,-357,205,26.100000,49.799999,979.340027
16/06/2023,18:41:14.906,-625,-24,-57,-886,-9,179,645,-354,178,26.100000,49.799999,979.340027
16/06/2023,18:41:14.915,-644,14,-35,-790,68,170,622,-339,169,26.100000,49.799999,979.340027
16/06/2023,18:41:14.925,-664,16,16,-696,165,166,613,-348,162,26.100000,49.799999,979.340027
16/06/2023,18:41:14.934,-665,14,67,-634,248,165,627,-334,172,26.100000,50.799999,979.429993
16/06/2023,18:41:14.943,-665,14,67,-600,296,172,624,-346,168,26.100000,50.799999,979.429993
16/06/2023,18:41:14.953,-647,52,114,-590,347,156,610,-351,153,26.100000,50.799999,979.429993
16/06/2023,18:41:14.962,-635,62,190,-581,407,115,631,-334,154,26.100000,50.799999,979.429993
16/06/2023,18:41:14.971,-667,32,267,-585,433,98,631,-334,154,26.100000,50.799999,979.429993
16/06/2023,18:41:14.981,-755,20,331,-577,442,75,627,-349,151,26.100000,50.799999,979.429993
16/06/2023,18:41:14.990,-890,5,379,-545,453,45,619,-328,153,26.100000,50.799999,979.429993
16/06/2023,18:41:14.999,-1062,-10,436,-478,478,-65,621,-340,145,26.100000,50.799999,979.429993
16/06/2023,18:41:15.009,-1224,-59,511,-563,411,-112,627,-327,156,26.100000,50.799999,979.429993
16/06/2023,18:41:15.018,-1353,-175,637,-661,303,-153,613,-352,144,26.100000,50.799999,979.429993
16/06/2023,18:41:15.028,-1457,-259,739,-891,81,-115,619,-325,142,26.100000,50.799999,979.429993
16/06/2023,18:41:15.037,-1480,-264,727,-1070,-35,-78,615,-327,145,26.100000,50.799999,979.429993
16/06/2023,18:41:15.046,-1349,-285,675,-1065,-191,72,624,-333,129,26.100000,50.799999,979.429993
16/06/2023,18:41:15.055,-1178,-270,582,-955,-258,227,624,-333,129,26.100000,50.799999,979.429993
16/06/2023,18:41:15.064,-1061,-193,471,-818,-243,319,598,-324,100,26.100000,50.799999,979.429993
16/06/2023,18:41:15.074,-929,-156,385,-722,-214,354,601,-307,120,26.100000,50.799999,979.429993
16/06/2023,18:41:15.084,-782,-135,253,-634,-154,340,603,-295,106,26.100000,50.799999,979.429993
16/06/2023,18:41:15.093,-668,-74,96,-455,-57,352,586,-304,100,26.100000,50.799999,979.429993
16/06/2023,18:41:15.103,-642,63,16,-279,182,377,598,-298,112,26.100000,50.799999,979.429993
16/06/2023,18:41:15.112,-802,279,-9,40,449,281,589,-313,99,26.100000,50.799999,979.429993
16/06/2023,18:41:15.121,-1047,327,31,348,643,137,576,-288,90,26.100000,50.799999,979.429993
16/06/2023,18:41:15.131,-1210,234,1,341,608,-91,585,-306,117,26.100000,50.799999,979.429993
16/06/2023,18:41:15.140,-1337,237,-216,276,565,-372,582,-286,100,26.100000,50.799999,979.429993
16/06/2023,18:41:15.149,-1428,275,-306,250,691,-615,582,-286,100,26.100000,50.799999,979.429993
16/06/2023,18:41:15.158,-1422,306,-185,286,761,-885,585,-292,117,26.100000,50.799999,979.429993
16/06/2023,18:41:15.168,-1296,273,-63,273,697,-986,603,-297,100,26.100000,50.799999,979.429993
16/06/2023,18:41:15.177,-1090,162,11,112,555,-738,598,-282,114,26.100000,50.799999,979.429993
16/06/2023,18:41:15.187,-912,109,13,-127,435,-364,618,-280,114,26.100000,50.799999,979.429993
16/06/2023,18:41:15.196,-710,73,-65,-318,336,-270,607,-282,117,26.100000,50.799999,979.429993
16/06/2023,18:41:15.206,-526,-18,-164,-397,364,-287,595,-286,132,26.100000,50.799999,979.429993
16/06/2023,18:41:15.215,-475,-135,-183,-397,364,-287,618,-273,124,26.100000,50.799999,979.429993
16/06/2023,18:41:15.224,-521,-301,-213,-347,484,-386,615,-262,135,26.100000,50.799999,979.429993
16/06/2023,18:41:15.234,-706,-439,-353,-214,658,-484,618,-244,135,26.100000,50.799999,979.429993
16/06/2023,18:41:15.242,-959,-525,-422,-158,1065,-425,618,-244,135,26.100000,50.799999,979.429993
16/06/2023,18:41:15.252,-1114,-559,-452,-676,1132,-279,621,-261,147,26.100000,50.799999,979.429993
16/06/2023,18:41:15.262,-1118,-569,-424,-1527,1006,-119,616,-243,160,26.100000,50.799999,979.429993
16/06/2023,18:41:15.271,-1057,-592,-260,-1843,1043,71,618,-253,148,26.100000,50.799999,979.429993
16/06/2023,18:41:15.281,-1042,-579,-92,-1271,1013,317,633,-246,156,26.100000,50.799999,979.429993
16/06/2023,18:41:15.290,-1042,-579,-92,-476,841,401,625,-237,144,26.100000,50.799999,979.429993
16/06/2023,18:41:15.299,-1033,-556,7,75,719,339,634,-235,150,26.100000,50.799999,979.429993
16/06/2023,18:41:15.309,-1032,-498,42,349,659,360,619,-256,165,26.100000,50.799999,979.429993
16/06/2023,18:41:15.318,-1066,-392,71,402,701,377,628,-231,180,26.100000,50.799999,979.429993
16/06/2023,18:41:15.330,-1100,-295,141,308,740,402,628,-231,180,26.100000,50.799999,979.429993
16/06/2023,18:41:15.337,-1076,-220,197,64,736,397,618,-249,195,26.100000,50.799999,979.429993
16/06/2023,18:41:15.346,-1021,-150,175,-261,753,396,618,-249,195,26.100000,50.799999,979.429993
16/06/2023,18:41:15.355,-985,-95,105,-494,734,367,624,-238,181,26.100000,50.799999,979.429993
16/06/2023,18:41:15.365,-947,-64,22,-559,664,287,630,-235,195,26.100000,50.799999,979.429993
16/06/2023,18:41:15.374,-902,-32,-71,-483,599,230,624,-231,205,26.100000,50.799999,979.429993
16/06/2023,18:41:15.384,-862,1,-144,-355,586,192,610,-232,202,26.100000,50.799999,979.429993
16/06/2023,18:41:15.393,-849,41,-158,-217,636,174,606,-228,204,26.100000,50.799999,979.429993
16/06/2023,18:41:15.402,-861,77,-129,-110,652,152,633,-220,214,26.100000,50.799999,979.429993
16/06/2023,18:41:15.411,-888,78,-75,-89,629,116,633,-220,214,26.100000,50.799999,979.429993
16/06/2023,18:41:15.420,-902,50,-41,-178,564,67,637,-228,219,26.100000,50.799999,979.429993
16/06/2023,18:41:15.430,-910,5,-76,-304,473,18,621,-246,210,26.100000,50.799999,979.429993
16/06/2023,18:41:15.440,-911,-54,-154,-351,418,3,624,-216,214,26.100000,50.799999,979.429993
16/06/2023,18:41:15.449,-894,-112,-217,-369,409,20,612,-235,241,26.100000,50.799999,979.429993
16/06/2023,18:41:15.459,-886,-149,-253,-339,436,46,616,-213,219,26.100000,50.799999,979.429993
16/06/2023,18:41:15.468,-887,-168,-269,-239,485,63,624,-213,240,26.100000,50.799999,979.429993
16/06/2023,18:41:15.477,-904,-193,-247,-121,524,70,612,-223,241,26.100000,50.799999,979.429993
16/06/2023,18:41:15.487,-930,-220,-213,-61,537,63,610,-213,243,26.100000,50.799999,979.429993
16/06/2023,18:41:15.495,-949,-227,-190,-29,535,73,610,-213,243,26.100000,50.799999,979.429993
16/06/2023,18:41:15.505,-975,-216,-170,6,521,86,616,-207,235,26.100000,50.799999,979.429993
16/06/2023,18:41:15.515,-1011,-208,-152,53,475,90,619,-213,237,26.100000,50.799999,979.429993
16/06/2023,18:41:15.524,-1042,-209,-136,90,429,80,618,-216,253,26.100000,50.799999,979.429993
16/06/2023,18:41:15.533,-1059,-208,-135,120,416,61,618,-201,268,26.100000,50.799999,979.429993
16/06/2023,18:41:15.543,-1083,-206,-136,100,466,37,604,-214,253,26.100000,50.799999,979.429993
16/06/2023,18:41:15.552,-1119,-227,-94,-4,552,11,598,-208,258,26.100000,50.799999,979.429993
16/06/2023,18:41:15.562,-1165,-243,-34,-4,552,11,604,-210,259,26.100000,50.799999,979.429993
16/06/2023,18:41:15.571,-1194,-224,30,-216,564,-1,618,-234,253,26.100000,50.799999,979.429993
16/06/2023,18:41:15.583,-1251,-157,295,-452,627,-31,612,-213,273,26.100000,50.799999,979.429993
16/06/2023,18:41:15.589,-1345,-88,570,-714,748,-78,612,-213,273,26.100000,50.799999,979.429993
16/06/2023,18:41:15.598,-1349,-129,543,-851,412,-147,609,-220,265,26.100000,50.799999,979.429993
16/06/2023,18:41:15.608,-1325,-291,371,-837,10,-212,610,-217,283,26.100000,50.799999,979.429993
16/06/2023,18:41:15.618,-1347,-551,167,-698,-250,-243,612,-205,276,26.100000,50.799999,979.429993
16/06/2023,18:41:15.627,-1414,-764,-27,-543,-389,-216,613,-208,267,26.100000,50.799999,979.429993
16/06/2023,18:41:15.637,-1414,-764,-27,-568,-467,-94,628,-204,265,26.100000,50.799999,979.429993
16/06/2023,18:41:15.646,-1470,-828,-153,-850,-602,-85,606,-205,280,26.100000,50.799999,979.429993
16/06/2023,18:41:15.655,-1407,-805,-195,-1262,-651,-117,592,-199,277,26.100000,50.799999,979.429993
16/06/2023,18:41:15.665,-1251,-762,-91,-1437,-717,-123,610,-208,268,26.100000,50.799999,979.429993
16/06/2023,18:41:15.674,-1146,-737,149,-1377,-841,-95,600,-198,268,26.100000,50.799999,979.429993
16/06/2023,18:41:15.683,-1120,-579,349,-1293,-975,-26,600,-198,268,26.100000,50.799999,979.429993
16/06/2023,18:41:15.692,-1105,-280,394,-1413,-1243,0,609,-198,262,26.100000,50.799999,979.429993
16/06/2023,18:41:15.702,-1102,-106,182,-1577,-1419,-72,589,-198,246,26.100000,50.799999,979.429993
16/06/2023,18:41:15.712,-1095,-104,-134,-1721,-1259,-150,582,-205,240,26.100000,50.799999,979.429993
16/06/2023,18:41:15.721,-1054,-128,-351,-1919,-1100,-263,588,-202,241,26.100000,50.799999,979.429993
16/06/2023,18:41:15.730,-994,-117,-523,-2178,-1059,-385,592,-199,240,26.100000,50.799999,979.429993
16/06/2023,18:41:15.740,-984,-118,-691,-2372,-1067,-482,612,-178,219,26.100000,50.799999,979.429993
16/06/2023,18:41:15.749,-1022,-123,-791,-2012,-1256,-618,595,-187,198,26.100000,50.799999,979.429993
16/06/2023,18:41:15.758,-1040,-125,-790,-1172,-1499,-707,612,-178,175,26.100000,50.799999,979.429993
16/06/2023,18:41:15.768,-1016,-192,-644,-349,-1259,-649,598,-175,166,26.100000,50.799999,979.429993
16/06/2023,18:41:15.776,-1117,-306,-246,-11,-935,-288,598,-175,166,26.100000,50.799999,979.429993
16/06/2023,18:41:15.786,-1395,-396,198,-109,-1052,59,586,-186,172,26.100000,50.799999,979.429993
16/06/2023,18:41:15.796,-1595,-498,426,-750,-1335,313,591,-178,183,26.100000,50.799999,979.429993
16/06/2023,18:41:15.805,-1596,-406,327,-1788,-1609,476,601,-175,169,26.100000,50.799999,979.429993
16/06/2023,18:41:15.815,-1385,-139,4,-2088,-1641,208,598,-171,147,26.100000,50.799999,979.429993
16/06/2023,18:41:15.824,-1091,-136,-212,-1842,-1409,158,588,-177,123,26.100000,50.799999,979.429993
16/06/2023,18:41:15.833,-876,-246,-264,-1385,-1178,310,579,-174,102,26.100000,50.799999,979.429993
16/06/2023,18:41:15.843,-831,-190,-197,-1046,-1139,401,571,-168,103,26.100000,50.799999,979.429993
16/06/2023,18:41:15.852,-775,-120,-108,-990,-1080,355,577,-163,91,26.100000,50.799999,979.429993
16/06/2023,18:41:15.861,-675,-59,-103,-1046,-940,356,570,-160,76,26.100000,50.799999,979.429993
16/06/2023,18:41:15.873,-616,7,-152,-1078,-849,348,570,-160,76,26.100000,50.799999,979.429993
16/06/2023,18:41:15.880,-573,43,-197,-1072,-755,361,570,-153,69,26.100000,50.799999,979.429993
16/06/2023,18:41:15.890,-573,86,-170,-1027,-659,368,558,-154,51,26.100000,50.799999,979.429993
16/06/2023,18:41:15.899,-564,116,-137,-971,-570,356,546,-163,57,26.100000,50.799999,979.429993
16/06/2023,18:41:15.908,-580,102,-133,-971,-570,356,555,-148,51,26.100000,50.799999,979.429993
16/06/2023,18:41:15.918,-593,91,-139,-912,-458,354,562,-150,49,26.100000,50.799999,979.429993
16/06/2023,18:41:15.927,-587,93,-117,-875,-396,333,552,-138,43,26.100000,50.799999,979.429993
16/06/2023,18:41:15.936,-594,49,-131,-812,-314,316,555,-135,49,26.100000,50.799999,979.429993
16/06/2023,18:41:15.946,-602,39,-138,-741,-228,324,567,-129,33,26.100000,50.799999,979.429993
16/06/2023,18:41:15.954,-594,81,-82,-624,-157,379,567,-129,33,26.100000,50.799999,979.429993
16/06/2023,18:41:15.964,-594,81,-82,-549,-98,381,564,-135,21,26.100000,50.799999,979.429993
16/06/2023,18:41:15.974,-481,103,39,-499,-77,360,549,-127,46,26.100000,50.799999,979.429993
16/06/2023,18:41:15.983,-481,103,39,-474,-71,327,537,-112,43,26.100000,50.500000,979.380005
16/06/2023,18:41:15.993,-476,125,115,-482,-21,282,537,-112,43,26.100000,50.500000,979.380005
16/06/2023,18:41:16.002,-535,138,207,-485,63,204,544,-123,33,26.100000,50.500000,979.380005
16/06/2023,18:41:16.011,-650,81,308,-443,131,118,537,-102,37,26.100000,50.500000,979.380005
16/06/2023,18:41:16.021,-817,30,401,-363,210,58,546,-115,31,26.100000,50.500000,979.380005
16/06/2023,18:41:16.029,-926,-68,502,-169,265,61,546,-115,31,26.100000,50.500000,979.380005
16/06/2023,18:41:16.039,-983,-80,594,-68,313,22,553,-103,45,26.100000,50.500000,979.380005
16/06/2023,18:41:16.049,-1145,-159,662,101,375,-33,574,-97,30,26.100000,50.500000,979.380005
16/06/2023,18:41:16.058,-1464,-308,789,293,540,-16,568,-102,30,26.100000,50.500000,979.380005
16/06/2023,18:41:16.068,-1727,-360,1044,-131,354,101,552,-105,43,26.100000,50.500000,979.380005
16/06/2023,18:41:16.077,-1565,-296,1056,-544,17,166,580,-94,45,26.100000,50.500000,979.380005
16/06/2023,18:41:16.086,-1177,-194,846,-667,-202,279,561,-84,49,26.100000,50.500000,979.380005
16/06/2023,18:41:16.096,-953,-176,639,-564,-235,359,570,-91,39,26.100000,50.500000,979.380005
16/06/2023,18:41:16.105,-935,-81,458,-238,-76,412,579,-111,43,26.100000,50.500000,979.380005
16/06/2023,18:41:16.114,-1141,-20,354,158,197,377,568,-93,28,26.100000,50.500000,979.380005
16/06/2023,18:41:16.123,-1442,-81,188,490,548,222,568,-93,28,26.100000,50.500000,979.380005
16/06/2023,18:41:16.133,-1727,-160,-67,857,747,-20,573,-94,61,26.100000,50.500000,979.380005
16/06/2023,18:41:16.142,-1845,-150,-345,1175,710,-277,573,-94,61,26.100000,50.500000,979.380005
16/06/2023,18:41:16.152,-1630,-35,-480,1304,626,-381,579,-96,64,26.100000,50.500000,979.380005
16/06/2023,18:41:16.161,-1215,139,-410,1261,682,-290,597,-103,63,26.100000,50.500000,979.380005
16/06/2023,18:41:16.171,-844,260,-258,1067,598,-167,609,-91,70,26.100000,50.500000,979.380005
16/06/2023,18:41:16.180,-562,304,-132,756,389,-81,589,-102,66,26.100000,50.500000,979.380005
16/06/2023,18:41:16.189,-360,334,-59,426,341,-37,606,-111,70,26.100000,50.500000,979.380005
16/06/2023,18:41:16.199,-271,327,-42,135,444,-45,607,-105,57,26.100000,50.500000,979.380005
16/06/2023,18:41:16.207,-275,286,-110,-23,539,-148,607,-105,57,26.100000,50.500000,979.380005
16/06/2023,18:41:16.217,-293,245,-260,-51,701,-322,609,-114,66,26.100000,50.500000,979.380005
16/06/2023,18:41:16.227,-327,195,-344,-33,907,-531,604,-76,69,26.100000,50.500000,979.380005
16/06/2023,18:41:16.236,-396,147,-327,-23,963,-708,624,-97,93,26.100000,50.500000,979.380005
16/06/2023,18:41:16.246,-506,85,-312,34,1118,-872,631,-94,85,26.100000,50.500000,979.380005
16/06/2023,18:41:16.255,-642,8,-367,34,1118,-872,625,-96,94,26.100000,50.500000,979.380005
16/06/2023,18:41:16.264,-782,-44,-433,191,1339,-1033,643,-72,114,26.100000,50.500000,979.380005
16/06/2023,18:41:16.274,-959,-54,-452,177,1388,-1134,619,-73,117,26.100000,50.500000,979.380005
16/06/2023,18:41:16.283,-1162,-101,-412,-3,1420,-1245,648,-63,127,26.100000,50.500000,979.380005
16/06/2023,18:41:16.292,-1428,-317,-315,242,1489,-1224,648,-63,127,26.100000,50.500000,979.380005
16/06/2023,18:41:16.302,-1710,-662,-203,966,1505,-794,643,-57,144,26.100000,50.500000,979.380005
16/06/2023,18:41:16.311,-1821,-740,-37,1548,1391,206,648,-60,154,26.100000,50.500000,979.380005
16/06/2023,18:41:16.320,-1585,-646,101,1759,1223,969,657,-67,168,26.100000,50.500000,979.380005
16/06/2023,18:41:16.330,-1585,-646,101,1618,742,888,652,-73,193,26.100000,50.500000,979.380005
16/06/2023,18:41:16.339,-1142,-681,96,1246,511,593,667,-85,172,26.100000,50.500000,979.380005
16/06/2023,18:41:16.349,-849,-678,55,899,627,452,667,-81,192,26.100000,50.500000,979.380005
16/06/2023,18:41:16.358,-789,-590,60,630,730,374,673,-82,178,26.100000,50.500000,979.380005
16/06/2023,18:41:16.367,-800,-481,68,350,754,308,661,-91,193,26.100000,50.500000,979.380005
16/06/2023,18:41:16.379,-815,-372,49,62,803,318,661,-91,193,26.100000,50.500000,979.380005
16/06/2023,18:41:16.386,-821,-260,49,-166,842,280,676,-105,193,26.100000,50.500000,979.380005
16/06/2023,18:41:16.395,-821,-156,35,-301,801,232,681,-78,216,26.100000,50.500000,979.380005
16/06/2023,18:41:16.405,-851,-52,-39,-259,718,185,663,-88,207,26.100000,50.500000,979.380005
16/06/2023,18:41:16.414,-894,32,-77,-95,609,150,684,-84,211,26.100000,50.500000,979.380005
16/06/2023,18:41:16.424,-924,75,-79,61,503,129,681,-94,210,26.100000,50.500000,979.380005
16/06/2023,18:41:16.433,-935,78,-73,136,422,103,685,-103,228,26.100000,50.500000,979.380005
16/06/2023,18:41:16.442,-941,71,-95,179,351,48,673,-91,220,26.100000,50.500000,979.380005
16/06/2023,18:41:16.452,-959,48,-148,204,319,44,678,-97,223,26.100000,50.500000,979.380005
16/06/2023,18:41:16.460,-996,-21,-180,220,322,27,678,-97,223,26.100000,50.500000,979.380005
16/06/2023,18:41:16.470,-1029,-115,-202,232,290,33,675,-100,238,26.100000,50.500000,979.380005
16/06/2023,18:41:16.483,-1056,-171,-232,285,262,55,682,-103,252,26.100000,50.500000,979.380005
16/06/2023,18:41:16.489,-1078,-196,-263,407,254,95,678,-87,244,26.100000,50.500000,979.380005
16/06/2023,18:41:16.498,-1109,-212,-267,561,276,126,688,-70,255,26.100000,50.500000,979.380005
16/06/2023,18:41:16.507,-1133,-230,-212,690,334,125,679,-96,252,26.100000,50.500000,979.380005
16/06/2023,18:41:16.517,-1118,-274,-102,705,388,126,681,-87,246,26.100000,50.500000,979.380005
16/06/2023,18:41:16.527,-1091,-313,-5,640,404,111,682,-97,265,26.100000,50.500000,979.380005
16/06/2023,18:41:16.536,-1054,-353,93,522,386,88,684,-97,283,26.100000,50.500000,979.380005
16/06/2023,18:41:16.545,-1034,-395,210,392,304,87,681,-108,258,26.100000,50.500000,979.380005
16/06/2023,18:41:16.554,-1046,-414,295,266,117,72,681,-108,258,26.100000,50.500000,979.380005
16/06/2023,18:41:16.563,-1046,-454,320,159,-117,65,691,-88,270,26.100000,50.500000,979.380005
16/06/2023,18:41:16.573,-1066,-522,277,24,-328,90,700,-99,268,26.100000,50.500000,979.380005
16/06/2023,18:41:16.583,-1128,-622,198,-168,-481,128,684,-85,267,26.100000,50.500000,979.380005
16/06/2023,18:41:16.592,-1211,-739,102,-441,-515,207,688,-97,247,26.100000,50.500000,979.380005
16/06/2023,18:41:16.602,-1310,-829,41,-441,-515,207,676,-94,258,26.100000,50.500000,979.380005
16/06/2023,18:41:16.611,-1289,-856,24,-754,-526,222,690,-105,267,26.100000,50.500000,979.380005
16/06/2023,18:41:16.620,-1124,-813,26,-1046,-693,158,688,-94,243,26.100000,50.500000,979.380005
16/06/2023,18:41:16.630,-1039,-696,135,-1209,-788,164,690,-72,238,26.100000,50.500000,979.380005
16/06/2023,18:41:16.639,-1084,-487,295,-1177,-891,280,685,-90,252,26.100000,50.500000,979.380005
16/06/2023,18:41:16.648,-1084,-287,331,-1128,-1074,389,685,-90,252,26.100000,50.500000,979.380005
16/06/2023,18:41:16.657,-1154,-287,331,-1200,-1301,464,684,-90,226,26.100000,50.500000,979.380005
16/06/2023,18:41:16.667,-1190,-115,-50,-1289,-1460,479,687,-79,223,26.100000,50.500000,979.380005
16/06/2023,18:41:16.677,-1190,-115,-50,-1437,-1412,488,673,-97,213,26.100000,50.500000,979.380005
16/06/2023,18:41:16.686,-1195,-87,-323,-1548,-1259,435,678,-84,198,26.100000,50.500000,979.380005
16/06/2023,18:41:16.695,-1291,10,-555,-1508,-1079,296,681,-91,201,26.100000,50.500000,979.380005
16/06/2023,18:41:16.705,-1465,158,-710,-1176,-997,-110,678,-91,187,26.100000,50.500000,979.380005
16/06/2023,18:41:16.714,-1573,271,-806,-582,-1077,-642,655,-76,171,26.100000,50.500000,979.380005
16/06/2023,18:41:16.723,-1547,298,-833,186,-1183,-1052,661,-76,165,26.100000,50.500000,979.380005
16/06/2023,18:41:16.733,-1374,211,-685,855,-1091,-887,645,-51,168,26.100000,50.500000,979.380005
16/06/2023,18:41:16.741,-1287,145,-174,820,-765,-167,645,-51,168,26.100000,50.500000,979.380005
16/06/2023,18:41:16.751,-1439,180,337,61,-807,234,663,-57,159,26.100000,50.500000,979.380005
16/06/2023,18:41:16.761,-1534,159,409,-956,-1136,165,651,-64,141,26.100000,50.500000,979.380005
16/06/2023,18:41:16.770,-1453,36,227,-1726,-1487,117,675,-72,141,26.100000,50.500000,979.380005
16/06/2023,18:41:16.780,-1304,-83,-4,-1782,-1648,226,649,-51,129,26.100000,50.500000,979.380005
16/06/2023,18:41:16.789,-1202,-109,-116,-1480,-1521,349,654,-51,124,26.100000,50.500000,979.380005
16/06/2023,18:41:16.798,-1064,-151,-131,-1326,-1271,304,661,-48,109,26.100000,50.500000,979.380005
16/06/2023,18:41:16.808,-854,-154,-211,-1125,-1104,414,657,-43,103,26.100000,50.500000,979.380005
16/06/2023,18:41:16.817,-741,-38,-225,-848,-983,486,637,-40,100,26.100000,50.500000,979.380005
16/06/2023,18:41:16.826,-663,59,-142,-682,-875,510,633,-25,93,26.100000,50.500000,979.380005
16/06/2023,18:41:16.835,-591,144,-71,-634,-817,544,633,-25,93,26.100000,50.500000,979.380005
16/06/2023,18:41:16.845,-516,210,-18,-645,-800,505,633,-46,97,26.100000,50.500000,979.380005
16/06/2023,18:41:16.855,-455,240,-27,-660,-743,403,610,-39,82,26.100000,50.500000,979.380005
16/06/2023,18:41:16.864,-431,260,-48,-658,-659,286,625,-16,84,26.100000,50.500000,979.380005
16/06/2023,18:41:16.873,-402,253,-49,-618,-591,200,619,-19,67,26.100000,50.500000,979.380005
16/06/2023,18:41:16.883,-399,223,-46,-515,-507,159,625,-25,87,26.100000,50.500000,979.380005
16/06/2023,18:41:16.892,-438,211,-29,-410,-394,125,609,-12,78,26.100000,50.500000,979.380005
16/06/2023,18:41:16.901,-491,165,9,-334,-281,79,621,-18,78,26.100000,50.500000,979.380005
16/06/2023,18:41:16.911,-537,88,70,-291,-183,56,616,-3,63,26.100000,50.500000,979.380005
16/06/2023,18:41:16.920,-564,36,123,-282,-102,44,612,-4,70,26.100000,50.500000,979.380005
16/06/2023,18:41:16.929,-580,-12,162,-318,-20,30,612,-4,70,26.100000,50.500000,979.380005
16/06/2023,18:41:16.938,-610,-44,190,-350,52,39,597,-4,82,26.100000,50.500000,979.380005
16/06/2023,18:41:16.948,-634,-79,197,-350,52,39,615,-15,72,26.100000,50.500000,979.380005
16/06/2023,18:41:16.958,-663,-112,226,-361,117,80,621,-10,67,26.100000,50.500000,979.380005
16/06/2023,18:41:16.967,-708,-106,300,-345,164,112,613,-13,72,26.100000,50.500000,979.380005
16/06/2023,18:41:16.976,-746,-110,324,-279,185,97,616,-3,64,26.100000,50.500000,979.380005
16/06/2023,18:41:16.986,-745,-106,309,-285,212,6,598,13,81,26.100000,50.500000,979.380005
16/06/2023,18:41:16.995,-774,-105,378,-155,299,-31,606,-1,91,26.100000,50.500000,979.380005
16/06/2023,18:41:17.004,-937,32,498,12,381,-33,616,7,78,26.100000,50.500000,979.380005
16/06/2023,18:41:17.013,-937,32,498,176,403,-32,616,7,78,26.100000,50.500000,979.380005
16/06/2023,18:41:17.023,-1095,120,650,338,377,-100,628,-3,79,26.100000,50.500000,979.380005
16/06/2023,18:41:17.033,-1296,-26,838,400,411,-96,619,22,85,26.100000,50.000000,979.450012
16/06/2023,18:41:17.042,-1590,-206,991,168,370,27,619,1,78,26.100000,50.000000,979.450012
16/06/2023,18:41:17.051,-1705,-289,976,-342,94,169,618,15,79,26.100000,50.000000,979.450012
16/06/2023,18:41:17.061,-1489,-153,745,-313,-172,246,615,16,106,26.100000,50.000000,979.450012
16/06/2023,18:41:17.070,-1198,38,579,53,-281,334,625,15,79,26.100000,50.000000,979.450012
16/06/2023,18:41:17.079,-977,75,522,342,-300,360,621,1,78,26.100000,50.000000,979.450012
16/06/2023,18:41:17.089,-723,48,407,540,-254,368,616,10,88,26.100000,50.000000,979.450012
16/06/2023,18:41:17.097,-569,142,238,794,-31,361,616,10,88,26.100000,50.000000,979.450012
16/06/2023,18:41:17.107,-726,301,82,1241,440,152,610,7,76,26.100000,50.000000,979.450012
16/06/2023,18:41:17.117,-1160,370,72,1320,763,-241,603,-15,84,26.100000,50.000000,979.450012
16/06/2023,18:41:17.126,-1553,376,-121,1200,919,-803,613,-24,78,26.100000,50.000000,979.450012
16/06/2023,18:41:17.135,-1739,306,-440,1197,961,-1063,612,-18,73,26.100000,50.000000,979.450012
16/06/2023,18:41:17.145,-1859,275,-461,1222,727,-1035,618,-13,105,26.100000,50.000000,979.450012
16/06/2023,18:41:17.154,-1702,185,-284,1044,736,-1055,636,-25,85,26.100000,50.000000,979.450012
16/06/2023,18:41:17.164,-1322,1,-137,602,541,-762,631,-10,93,26.100000,50.000000,979.450012
16/06/2023,18:41:17.173,-1063,-59,-140,187,269,-426,636,-19,99,26.100000,50.000000,979.450012
16/06/2023,18:41:17.182,-833,-69,-208,-70,79,-186,631,-16,96,26.100000,50.000000,979.450012
16/06/2023,18:41:17.191,-604,-98,-267,-164,67,-135,631,-16,96,26.100000,50.000000,979.450012
16/06/2023,18:41:17.201,-468,-146,-285,-110,210,-181,633,-16,112,26.100000,50.000000,979.450012
16/06/2023,18:41:17.211,-429,-198,-352,16,471,-263,640,-10,87,26.100000,50.000000,979.450012
16/06/2023,18:41:17.220,-449,-252,-428,117,835,-329,640,-28,102,26.100000,50.000000,979.450012
16/06/2023,18:41:17.229,-525,-276,-457,153,1080,-319,639,-19,90,26.100000,50.000000,979.450012
16/06/2023,18:41:17.242,-654,-222,-470,189,1133,-267,649,-10,108,26.100000,50.000000,979.450012
16/06/2023,18:41:17.248,-790,-135,-426,388,1194,-264,642,-10,108,26.100000,50.000000,979.450012
16/06/2023,18:41:17.257,-888,-67,-312,814,1229,-266,664,-4,126,26.100000,50.000000,979.450012
16/06/2023,18:41:17.267,-1005,40,-183,1435,1096,-257,657,-15,120,26.100000,50.000000,979.450012
16/06/2023,18:41:17.276,-1052,84,-106,1435,1096,-257,664,-22,133,26.100000,50.000000,979.450012
16/06/2023,18:41:17.285,-1051,12,-30,2238,1040,-159,664,-22,133,26.100000,50.000000,979.450012
16/06/2023,18:41:17.294,-1141,-50,74,2238,1040,-159,666,-18,153,26.100000,50.000000,979.450012
16/06/2023,18:41:17.304,-1222,-104,122,1989,994,-93,666,-18,153,26.100000,50.000000,979.450012
16/06/2023,18:41:17.314,-1227,-157,104,1575,862,-16,673,-40,156,26.100000,50.000000,979.450012
16/06/2023,18:41:17.323,-1173,-207,58,1174,828,133,676,-67,163,26.100000,50.000000,979.450012
16/06/2023,18:41:17.332,-1097,-219,-2,943,861,295,673,-52,174,26.100000,50.000000,979.450012
16/06/2023,18:41:17.342,-1010,-214,-48,913,856,445,676,-49,204,26.100000,50.000000,979.450012
16/06/2023,18:41:17.351,-922,-229,-79,1000,871,447,682,-72,189,26.100000,50.000000,979.450012
16/06/2023,18:41:17.360,-883,-246,-104,1095,875,394,693,-73,178,26.100000,50.000000,979.450012
16/06/2023,18:41:17.370,-883,-246,-104,1113,808,328,679,-75,201,26.100000,50.000000,979.450012
16/06/2023,18:41:17.379,-870,-259,-135,1079,733,264,679,-75,201,26.100000,50.000000,979.450012
16/06/2023,18:41:17.391,-872,-261,-167,1049,667,210,696,-84,193,26.100000,50.000000,979.450012
16/06/2023,18:41:17.398,-880,-258,-190,1037,560,173,673,-100,202,26.100000,50.000000,979.450012
16/06/2023,18:41:17.407,-885,-257,-192,1013,513,149,702,-106,202,26.100000,50.000000,979.450012
16/06/2023,18:41:17.417,-880,-251,-163,1003,513,125,682,-109,208,26.100000,50.000000,979.450012
16/06/2023,18:41:17.426,-888,-248,-106,1004,584,118,691,-109,219,26.100000,50.000000,979.450012
16/06/2023,18:41:17.435,-930,-249,0,1027,610,124,687,-111,225,26.100000,50.000000,979.450012
16/06/2023,18:41:17.445,-950,-266,116,1094,557,120,697,-108,229,26.100000,50.000000,979.450012
16/06/2023,18:41:17.454,-960,-281,197,1064,469,122,682,-105,249,26.100000,50.000000,979.450012
16/06/2023,18:41:17.463,-976,-284,228,881,350,112,696,-109,232,26.100000,50.000000,979.450012
16/06/2023,18:41:17.472,-982,-267,167,624,244,107,696,-109,232,26.100000,50.000000,979.450012
16/06/2023,18:41:17.482,-980,-248,49,431,159,107,688,-120,261,26.100000,50.000000,979.450012
16/06/2023,18:41:17.492,-970,-253,-54,334,95,126,708,-118,273,26.100000,50.000000,979.450012
16/06/2023,18:41:17.501,-960,-246,-136,315,56,182,681,-126,226,26.100000,50.000000,979.450012
16/06/2023,18:41:17.510,-943,-250,-182,330,48,226,690,-135,273,26.100000,50.000000,979.450012
16/06/2023,18:41:17.520,-930,-267,-200,377,66,223,676,-129,235,26.100000,50.000000,979.450012
