dd/mm/yyyy,hh:mm:ss.ms,accX[mg],accY[mg],accZ[mg],gyroX[mdps],gyroY[mdps],gyroZ[mdps],magX[mG],magY[mG],magZ[mG],T[degC],rH[%],Press[hPa],
16/06/2023,17:58:49.796,4,18,994,-5,-4,-4,-829,91,-1711,0.000000,0.000000,0.000000
16/06/2023,17:58:49.797,4,18,994,-5,-4,-4,-829,91,-1711,0.000000,0.000000,0.000000
16/06/2023,17:58:49.797,4,18,994,-5,-4,-4,-829,91,-1711,0.000000,0.000000,0.000000
16/06/2023,17:58:49.798,4,18,994,-5,-4,-4,-829,91,-1711,0.000000,0.000000,0.000000
16/06/2023,17:58:49.798,4,18,994,-5,-4,-4,-829,91,-1711,0.000000,0.000000,0.000000
16/06/2023,17:58:49.802,4,18,994,-5,-4,-4,-829,91,-1711,0.000000,0.000000,0.000000
16/06/2023,17:58:49.803,4,18,994,-5,-4,-4,-829,91,-1711,0.000000,0.000000,0.000000
16/06/2023,17:58:49.803,4,18,994,-5,-4,-4,-829,91,-1711,0.000000,0.000000,0.000000
16/06/2023,17:58:49.804,4,18,994,-5,-4,-4,-829,91,-1711,0.000000,0.000000,0.000000
16/06/2023,17:58:49.804,4,18,994,-5,-4,-4,-829,91,-1711,0.000000,0.000000,0.000000
16/06/2023,17:58:49.805,2,18,994,-5,-4,-4,-829,91,-1711,0.000000,0.000000,0.000000
16/06/2023,17:58:49.817,2,18,996,-4,-3,-6,-844,103,-1699,0.000000,0.000000,0.000000
16/06/2023,17:58:49.827,0,19,996,-4,-4,-6,-853,81,-1716,0.000000,0.000000,0.000000
16/06/2023,17:58:49.836,0,20,996,-5,-4,-4,-862,82,-1713,0.000000,0.000000,0.000000
16/06/2023,17:58:49.845,0,20,996,-5,-4,-5,-862,82,-1713,0.000000,0.000000,0.000000
16/06/2023,17:58:49.854,2,19,996,-4,-3,-6,-850,97,-1720,0.000000,0.000000,0.000000
16/06/2023,17:58:49.864,2,16,995,-5,-4,-6,-846,102,-1726,0.000000,0.000000,0.000000
16/06/2023,17:58:49.874,1,18,993,-4,-5,-4,-843,100,-1729,0.000000,0.000000,0.000000
16/06/2023,17:58:49.883,5,20,994,-4,-4,-3,-858,85,-1717,0.000000,0.000000,0.000000
16/06/2023,17:58:49.892,6,19,996,-4,-3,-4,-846,99,-1728,0.000000,0.000000,0.000000
16/06/2023,17:58:49.902,2,18,995,-4,-4,-6,-855,90,-1728,0.000000,0.000000,0.000000
16/06/2023,17:58:49.911,1,18,994,-5,-4,-5,-882,94,-1734,0.000000,0.000000,0.000000
16/06/2023,17:58:49.920,3,17,992,-4,-4,-6,-868,105,-1747,0.000000,0.000000,0.000000
16/06/2023,17:58:49.930,2,17,993,-5,-6,-5,-879,105,-1746,0.000000,0.000000,0.000000
16/06/2023,17:58:49.939,2,17,995,-4,-5,-5,-879,105,-1746,0.000000,0.000000,0.000000
16/06/2023,17:58:49.948,2,17,994,-4,-4,-5,-876,100,-1747,0.000000,0.000000,0.000000
16/06/2023,17:58:49.958,1,19,992,-5,-4,-4,-864,105,-1758,0.000000,0.000000,0.000000
16/06/2023,17:58:49.967,2,20,994,-4,-4,-5,-888,97,-1765,0.000000,0.000000,0.000000
16/06/2023,17:58:49.977,1,18,995,-5,-5,-5,-880,97,-1762,0.000000,0.000000,0.000000
16/06/2023,17:58:49.986,2,18,994,-4,-3,-6,-880,100,-1749,0.000000,0.000000,0.000000
16/06/2023,17:58:49.995,3,19,994,-4,-3,-6,-871,97,-1758,0.000000,0.000000,0.000000
16/06/2023,17:58:50.005,2,19,996,-4,-4,-5,-862,114,-1753,0.000000,0.000000,0.000000
16/06/2023,17:58:50.014,1,20,996,-4,-4,-5,-874,91,-1737,0.000000,0.000000,0.000000
16/06/2023,17:58:50.023,1,17,995,-4,-4,-4,-874,91,-1737,0.000000,0.000000,0.000000
16/06/2023,17:58:50.032,2,18,994,-4,-4,-4,-874,84,-1734,0.000000,0.000000,0.000000
16/06/2023,17:58:50.042,2,19,992,-4,-4,-4,-877,90,-1723,0.000000,0.000000,0.000000
16/06/2023,17:58:50.052,1,18,993,-5,-5,-5,-889,81,-1713,0.000000,0.000000,0.000000
16/06/2023,17:58:50.061,2,18,995,-5,-4,-6,-886,85,-1704,0.000000,0.000000,0.000000
16/06/2023,17:58:50.070,1,19,995,-3,-3,-6,-870,84,-1695,0.000000,0.000000,0.000000
16/06/2023,17:58:50.080,0,19,994,-4,-4,-5,-856,67,-1672,0.000000,0.000000,0.000000
16/06/2023,17:58:50.089,0,18,993,-5,-4,-5,-852,58,-1671,0.000000,0.000000,0.000000
16/06/2023,17:58:50.098,0,16,994,-4,-4,-5,-852,70,-1680,0.000000,0.000000,0.000000
16/06/2023,17:58:50.107,1,20,994,-4,-3,-4,-852,70,-1680,0.000000,0.000000,0.000000
16/06/2023,17:58:50.117,1,21,994,-5,-3,-4,-841,54,-1654,0.000000,0.000000,0.000000
16/06/2023,17:58:50.127,2,18,991,-4,-2,-5,-847,40,-1657,0.000000,0.000000,0.000000
16/06/2023,17:58:50.136,2,20,991,-4,-2,-5,-858,24,-1663,0.000000,0.000000,0.000000
16/06/2023,17:58:50.145,3,21,993,-5,-3,-4,-873,21,-1668,0.000000,0.000000,0.000000
16/06/2023,17:58:50.155,5,18,995,-5,-5,-4,-865,27,-1678,0.000000,0.000000,0.000000
16/06/2023,17:58:50.164,4,19,995,-5,-4,-4,-859,4,-1684,0.000000,0.000000,0.000000
16/06/2023,17:58:50.173,3,20,992,-5,-3,-5,-858,6,-1711,0.000000,0.000000,0.000000
16/06/2023,17:58:50.183,1,19,994,-5,-4,-6,-850,-18,-1710,0.000000,0.000000,0.000000
16/06/2023,17:58:50.192,2,21,995,-4,-4,-5,-862,-30,-1725,0.000000,0.000000,0.000000
16/06/2023,17:58:50.201,2,21,995,-5,-4,-6,-862,-30,-1725,0.000000,0.000000,0.000000
16/06/2023,17:58:50.214,4,22,992,-5,-3,-5,-871,-10,-1713,0.000000,0.000000,0.000000
16/06/2023,17:58:50.220,2,20,994,-4,-2,-5,-882,-33,-1723,0.000000,0.000000,0.000000
16/06/2023,17:58:50.230,2,19,995,-5,-3,-5,-897,-58,-1722,0.000000,0.000000,0.000000
16/06/2023,17:58:50.239,2,19,994,-4,-4,-4,-900,-70,-1728,0.000000,0.000000,0.000000
16/06/2023,17:58:50.248,1,18,994,-4,-4,-4,-903,-75,-1732,0.000000,0.000000,0.000000
16/06/2023,17:58:50.258,1,17,995,-5,-4,-5,-924,-75,-1753,0.000000,0.000000,0.000000
16/06/2023,17:58:50.270,2,17,993,-4,-3,-6,-957,-96,-1774,0.000000,0.000000,0.000000
16/06/2023,17:58:50.277,2,21,992,-5,-3,-5,-973,-81,-1815,0.000000,0.000000,0.000000
16/06/2023,17:58:50.285,1,20,991,-5,-4,-4,-973,-81,-1815,0.000000,0.000000,0.000000
16/06/2023,17:58:50.295,3,18,992,-4,-4,-4,-982,-82,-1851,0.000000,0.000000,0.000000
16/06/2023,17:58:50.305,3,18,992,-4,-4,-5,-981,-72,-1863,0.000000,0.000000,0.000000
16/06/2023,17:58:50.314,2,18,992,-4,-4,-5,-1030,-76,-1887,0.000000,0.000000,0.000000
16/06/2023,17:58:50.326,2,18,993,-5,-3,-5,-1048,-69,-1897,0.000000,0.000000,0.000000
16/06/2023,17:58:50.333,0,17,992,-5,-7,-5,-1065,-87,-1911,0.000000,0.000000,0.000000
16/06/2023,17:58:50.342,0,19,994,-5,-5,-5,-1066,-64,-1912,0.000000,0.000000,0.000000
16/06/2023,17:58:50.351,2,20,994,-4,-4,-5,-1086,-81,-1894,0.000000,0.000000,0.000000
16/06/2023,17:58:50.361,3,20,994,-4,-4,-5,-1078,-91,-1900,0.000000,0.000000,0.000000
16/06/2023,17:58:50.370,0,20,994,-5,-3,-5,-1066,-82,-1878,0.000000,0.000000,0.000000
16/06/2023,17:58:50.382,-1,22,993,-5,-4,-5,-1066,-82,-1878,0.000000,0.000000,0.000000
16/06/2023,17:58:50.388,0,20,993,-4,-4,-5,-1035,-76,-1813,0.000000,0.000000,0.000000
16/06/2023,17:58:50.398,2,18,993,-4,-5,-5,-1035,-76,-1813,0.000000,0.000000,0.000000
16/06/2023,17:58:50.408,0,18,992,-5,-3,-5,-1015,-97,-1800,0.000000,0.000000,0.000000
16/06/2023,17:58:50.417,1,18,994,-4,-4,-5,-991,-106,-1759,0.000000,0.000000,0.000000
16/06/2023,17:58:50.426,2,19,993,-4,-5,-5,-958,-99,-1768,0.000000,0.000000,0.000000
16/06/2023,17:58:50.439,2,20,993,-4,-5,-5,-967,-82,-1749,0.000000,0.000000,0.000000
16/06/2023,17:58:50.445,1,18,995,-6,-5,-4,-952,-81,-1731,0.000000,0.000000,0.000000
16/06/2023,17:58:50.455,-1,16,994,-6,-5,-4,-933,-85,-1708,0.000000,0.000000,0.000000
16/06/2023,17:58:50.464,0,18,991,-5,-3,-4,-922,-76,-1720,0.000000,0.000000,0.000000
16/06/2023,17:58:50.473,2,19,992,-4,-4,-5,-922,-76,-1720,0.000000,0.000000,0.000000
16/06/2023,17:58:50.482,1,19,993,-4,-4,-5,-919,-81,-1690,0.000000,0.000000,0.000000
16/06/2023,17:58:50.495,2,19,993,-4,-4,-4,-928,-70,-1684,0.000000,0.000000,0.000000
16/06/2023,17:58:50.501,2,19,993,-5,-3,-5,-925,-93,-1686,0.000000,0.000000,0.000000
16/06/2023,17:58:50.511,0,18,993,-4,-3,-5,-915,-85,-1702,0.000000,0.000000,0.000000
16/06/2023,17:58:50.520,0,18,992,-4,-3,-4,-930,-85,-1704,0.000000,0.000000,0.000000
16/06/2023,17:58:50.529,1,19,991,-4,-3,-4,-936,-76,-1704,0.000000,0.000000,0.000000
16/06/2023,17:58:50.539,1,22,993,-4,-2,-5,-928,-78,-1711,0.000000,0.000000,0.000000
16/06/2023,17:58:50.551,1,22,993,-4,-3,-5,-946,-84,-1728,0.000000,0.000000,0.000000
16/06/2023,17:58:50.558,1,22,995,-5,-4,-4,-957,-67,-1710,0.000000,0.000000,0.000000
16/06/2023,17:58:50.566,3,18,995,-4,-3,-5,-957,-67,-1710,0.000000,0.000000,0.000000
16/06/2023,17:58:50.576,2,17,995,-4,-5,-5,-928,-76,-1740,0.000000,0.000000,0.000000
16/06/2023,17:58:50.586,1,18,996,-5,-3,-5,-924,-75,-1734,0.000000,0.000000,0.000000
16/06/2023,17:58:50.595,0,18,995,-5,-4,-5,-933,-72,-1705,0.000000,0.000000,0.000000
16/06/2023,17:58:50.608,1,18,994,-4,-5,-5,-930,-81,-1723,0.000000,0.000000,0.000000
16/06/2023,17:58:50.614,3,18,994,-4,-3,-5,-927,-70,-1707,0.000000,0.000000,0.000000
16/06/2023,17:58:50.623,2,18,994,-4,-3,-5,-928,-69,-1719,0.000000,0.000000,0.000000
16/06/2023,17:58:50.633,2,20,993,-5,-5,-5,-916,-73,-1714,0.000000,0.000000,0.000000
16/06/2023,17:58:50.642,2,19,993,-5,-4,-6,-918,-79,-1707,0.000000,0.000000,0.000000
16/06/2023,17:58:50.651,3,18,993,-5,-5,-5,-928,-58,-1708,0.000000,0.000000,0.000000
16/06/2023,17:58:50.664,2,18,993,-5,-5,-6,-928,-58,-1708,0.000000,0.000000,0.000000
16/06/2023,17:58:50.670,2,18,997,-4,-2,-6,-921,-81,-1713,0.000000,0.000000,0.000000
16/06/2023,17:58:50.679,1,17,997,-5,-1,-5,-918,-69,-1720,0.000000,0.000000,0.000000
16/06/2023,17:58:50.689,1,15,994,-3,-3,-5,-921,-57,-1705,0.000000,0.000000,0.000000
16/06/2023,17:58:50.698,2,18,994,-4,-3,-5,-927,-45,-1722,0.000000,0.000000,0.000000
16/06/2023,17:58:50.707,2,19,995,-5,-3,-5,-940,-66,-1716,0.000000,0.000000,0.000000
16/06/2023,17:58:50.720,2,20,995,-5,-4,-4,-945,-28,-1735,0.000000,0.000000,0.000000
16/06/2023,17:58:50.726,1,20,994,-4,-2,-4,-940,-49,-1753,0.000000,0.000000,0.000000
16/06/2023,17:58:50.736,1,18,993,-5,-3,-6,-945,-51,-1722,0.000000,0.000000,0.000000
16/06/2023,17:58:50.744,0,17,997,-5,-3,-4,-945,-51,-1722,0.000000,0.000000,0.000000
16/06/2023,17:58:50.754,1,18,997,-4,-4,-5,-931,-36,-1714,0.000000,0.000000,0.000000
16/06/2023,17:58:50.764,4,19,995,-4,-5,-5,-916,-45,-1714,24.700001,47.500000,979.119995
16/06/2023,17:58:50.776,4,19,995,-4,-5,-4,-928,-33,-1722,24.700001,47.500000,979.119995
16/06/2023,17:58:50.782,2,17,994,-5,-3,-4,-949,-40,-1723,24.700001,47.500000,979.119995
16/06/2023,17:58:50.792,1,19,995,-4,-4,-4,-928,-33,-1734,24.700001,47.500000,979.119995
16/06/2023,17:58:50.801,0,20,995,-5,-4,-5,-922,-27,-1717,24.700001,47.500000,979.119995
16/06/2023,17:58:50.811,-1,21,994,-5,-4,-5,-930,-42,-1735,24.700001,47.500000,979.119995
16/06/2023,17:58:50.820,-1,21,995,-5,-6,-4,-916,-45,-1714,24.700001,47.500000,979.119995
16/06/2023,17:58:50.829,2,18,994,-4,-4,-5,-916,-45,-1714,24.700001,47.500000,979.119995
16/06/2023,17:58:50.838,4,17,995,-4,-3,-5,-924,-46,-1722,24.700001,47.500000,979.119995
16/06/2023,17:58:50.848,2,18,995,-5,-3,-4,-918,-51,-1701,24.700001,47.500000,979.119995
16/06/2023,17:58:50.857,1,19,994,-4,-3,-4,-918,-55,-1722,24.700001,47.500000,979.119995
16/06/2023,17:58:50.867,0,17,995,-5,-4,-5,-922,-37,-1714,24.700001,47.500000,979.119995
16/06/2023,17:58:50.876,0,19,992,-4,-4,-6,-931,-58,-1719,24.700001,47.500000,979.119995
16/06/2023,17:58:50.885,0,20,991,-5,-4,-5,-931,-52,-1698,24.700001,47.500000,979.119995
16/06/2023,17:58:50.895,0,20,991,-5,-5,-4,-921,-63,-1711,24.700001,47.500000,979.119995
16/06/2023,17:58:50.904,4,18,995,-5,-3,-5,-919,-66,-1702,24.700001,47.500000,979.119995
16/06/2023,17:58:50.914,3,17,995,-3,-5,-4,-921,-42,-1720,24.700001,47.500000,979.119995
16/06/2023,17:58:50.922,1,19,995,-4,-4,-4,-921,-42,-1720,24.700001,47.500000,979.119995
16/06/2023,17:58:50.932,3,22,994,-4,-3,-4,-907,-72,-1716,24.700001,47.500000,979.119995
16/06/2023,17:58:50.942,3,21,993,-4,-3,-4,-907,-60,-1720,24.700001,47.500000,979.119995
16/06/2023,17:58:50.951,2,18,994,-4,-4,-5,-900,-54,-1702,24.700001,47.500000,979.119995
16/06/2023,17:58:50.960,2,19,995,-4,-4,-5,-886,-67,-1708,24.700001,47.500000,979.119995
16/06/2023,17:58:50.970,3,21,994,-4,-3,-5,-876,-91,-1687,24.700001,47.500000,979.119995
16/06/2023,17:58:50.979,2,19,994,-4,-3,-5,-876,-85,-1710,24.700001,47.500000,979.119995
16/06/2023,17:58:50.992,1,18,995,-3,-3,-4,-862,-97,-1665,24.700001,47.500000,979.119995
16/06/2023,17:58:50.998,1,17,995,-4,-1,-6,-852,-96,-1626,24.700001,47.500000,979.119995
16/06/2023,17:58:51.007,0,19,994,-4,-3,-5,-834,-120,-1624,24.700001,47.500000,979.119995
16/06/2023,17:58:51.016,2,20,994,-5,-4,-5,-834,-120,-1624,24.700001,47.500000,979.119995
16/06/2023,17:58:51.026,1,19,992,-4,-4,-5,-834,-120,-1617,24.700001,47.500000,979.119995
16/06/2023,17:58:51.035,1,19,991,-4,-4,-5,-841,-121,-1620,24.700001,47.500000,979.119995
16/06/2023,17:58:51.045,1,17,994,-5,-5,-4,-808,-112,-1621,24.700001,47.500000,979.119995
16/06/2023,17:58:51.054,0,18,996,-5,-4,-4,-810,-130,-1609,24.700001,47.500000,979.119995
16/06/2023,17:58:51.063,0,19,992,-4,-5,-4,-781,-130,-1590,24.700001,47.500000,979.119995
16/06/2023,17:58:51.073,3,19,991,-5,-4,-4,-771,-141,-1575,24.700001,47.500000,979.119995
16/06/2023,17:58:51.082,1,18,995,-5,-4,-4,-765,-150,-1534,24.700001,47.500000,979.119995
16/06/2023,17:58:51.092,0,17,997,-5,-5,-4,-705,-178,-1485,24.700001,47.500000,979.119995
16/06/2023,17:58:51.100,0,17,994,-5,-5,-4,-705,-178,-1485,24.700001,47.500000,979.119995
16/06/2023,17:58:51.110,3,19,992,-5,-5,-5,-712,-169,-1455,24.700001,47.500000,979.119995
16/06/2023,17:58:51.120,2,20,994,-4,-5,-6,-678,-184,-1431,24.700001,47.500000,979.119995
16/06/2023,17:58:51.129,2,18,995,-4,-3,-5,-661,-189,-1387,24.700001,47.500000,979.119995
16/06/2023,17:58:51.138,2,18,994,-4,-4,-4,-645,-219,-1363,24.700001,47.500000,979.119995
16/06/2023,17:58:51.148,1,20,993,-4,-3,-5,-615,-217,-1323,24.700001,47.500000,979.119995
16/06/2023,17:58:51.157,2,19,993,-5,-5,-6,-621,-237,-1284,24.700001,47.500000,979.119995
16/06/2023,17:58:51.167,3,17,992,-5,-5,-6,-604,-228,-1258,24.700001,47.500000,979.119995
16/06/2023,17:58:51.176,2,17,994,-4,-4,-5,-582,-250,-1252,24.700001,47.500000,979.119995
16/06/2023,17:58:51.185,1,17,995,-5,-4,-5,-568,-249,-1224,24.700001,47.500000,979.119995
16/06/2023,17:58:51.194,2,16,993,-4,-4,-5,-568,-249,-1224,24.700001,47.500000,979.119995
16/06/2023,17:58:51.204,3,19,991,-5,-4,-5,-541,-249,-1197,24.700001,47.500000,979.119995
16/06/2023,17:58:51.213,3,20,991,-5,-4,-5,-538,-264,-1164,24.700001,47.500000,979.119995
16/06/2023,17:58:51.223,2,19,991,-4,-5,-4,-502,-280,-1138,24.700001,47.500000,979.119995
16/06/2023,17:58:51.232,2,20,991,-5,-5,-4,-493,-307,-1111,24.700001,47.500000,979.119995
16/06/2023,17:58:51.242,2,20,991,-5,-4,-5,-460,-298,-1056,24.700001,47.500000,979.119995
16/06/2023,17:58:51.251,3,20,993,-5,-3,-5,-421,-334,-993,24.700001,47.500000,979.119995
16/06/2023,17:58:51.260,2,19,995,-5,-5,-5,-414,-346,-960,24.700001,47.500000,979.119995
16/06/2023,17:58:51.270,1,20,996,-5,-5,-5,-396,-357,-940,24.700001,47.500000,979.119995
16/06/2023,17:58:51.278,1,19,998,-5,-5,-5,-396,-357,-940,24.700001,47.500000,979.119995
16/06/2023,17:58:51.288,0,18,998,-5,-5,-4,-387,-364,-885,24.700001,47.500000,979.119995
16/06/2023,17:58:51.298,1,18,995,-5,-5,-5,-360,-394,-844,24.700001,47.500000,979.119995
16/06/2023,17:58:51.307,0,16,993,-5,-4,-5,-343,-388,-816,24.700001,47.500000,979.119995
16/06/2023,17:58:51.316,1,17,994,-5,-3,-5,-325,-412,-799,24.700001,47.500000,979.119995
16/06/2023,17:58:51.326,4,19,995,-5,-4,-5,-325,-403,-745,24.700001,47.500000,979.119995
16/06/2023,17:58:51.335,4,20,996,-4,-5,-5,-295,-438,-730,24.700001,47.500000,979.119995
16/06/2023,17:58:51.345,3,20,996,-4,-5,-4,-289,-426,-690,24.700001,47.500000,979.119995
16/06/2023,17:58:51.354,2,17,994,-5,-5,-5,-276,-444,-658,24.700001,47.500000,979.119995
16/06/2023,17:58:51.366,1,14,995,-5,-3,-5,-243,-460,-619,24.700001,47.500000,979.119995
16/06/2023,17:58:51.372,2,16,994,-5,-4,-5,-243,-460,-619,24.700001,47.500000,979.119995
16/06/2023,17:58:51.381,2,19,994,-5,-4,-5,-241,-459,-582,24.700001,47.500000,979.119995
16/06/2023,17:58:51.391,2,18,994,-5,-4,-5,-223,-454,-549,24.700001,47.500000,979.119995
16/06/2023,17:58:51.401,1,17,992,-4,-3,-5,-204,-445,-531,24.700001,47.500000,979.119995
16/06/2023,17:58:51.410,1,17,992,-4,-4,-4,-166,-445,-507,24.700001,47.500000,979.119995
16/06/2023,17:58:51.420,2,16,994,-5,-4,-5,-174,-438,-420,24.700001,47.500000,979.119995
16/06/2023,17:58:51.429,2,16,995,-6,-4,-5,-144,-435,-430,24.700001,47.500000,979.119995
16/06/2023,17:58:51.438,2,18,994,-5,-4,-4,-124,-433,-400,24.700001,47.500000,979.119995
16/06/2023,17:58:51.448,1,19,996,-4,-6,-4,-108,-409,-375,24.700001,47.500000,979.119995
16/06/2023,17:58:51.457,0,18,995,-4,-4,-5,-91,-433,-354,24.700001,47.500000,979.119995
16/06/2023,17:58:51.466,0,20,993,-4,-4,-5,-91,-433,-354,24.700001,47.500000,979.119995
16/06/2023,17:58:51.476,1,21,993,-5,-4,-5,-96,-432,-328,24.700001,47.500000,979.119995
16/06/2023,17:58:51.485,3,20,993,-4,-4,-5,-64,-418,-328,24.700001,47.500000,979.119995
16/06/2023,17:58:51.494,2,20,993,-5,-5,-5,-72,-411,-286,24.700001,47.500000,979.119995
16/06/2023,17:58:51.504,2,20,994,-4,-5,-5,-37,-405,-265,24.700001,47.500000,979.119995
16/06/2023,17:58:51.513,2,19,994,-4,-5,-5,-60,-397,-268,24.700001,47.500000,979.119995
16/06/2023,17:58:51.523,0,18,993,-5,-4,-4,-42,-384,-235,24.700001,47.500000,979.119995
16/06/2023,17:58:51.532,0,16,995,-5,-5,-4,-43,-372,-223,24.700001,47.500000,979.119995
16/06/2023,17:58:51.541,0,18,996,-4,-4,-4,-25,-379,-216,24.700001,47.500000,979.119995
16/06/2023,17:58:51.550,0,20,996,-4,-5,-4,-25,-379,-216,24.700001,47.500000,979.119995
16/06/2023,17:58:51.559,1,18,995,-5,-4,-4,-24,-367,-205,24.700001,47.500000,979.119995
16/06/2023,17:58:51.569,1,17,993,-5,-4,-5,-22,-381,-193,24.700001,47.500000,979.119995
16/06/2023,17:58:51.579,1,16,993,-5,-5,-5,3,-367,-150,24.700001,47.500000,979.119995
16/06/2023,17:58:51.588,1,16,993,-4,-5,-5,-18,-346,-156,24.700001,47.500000,979.119995
16/06/2023,17:58:51.598,3,16,994,-4,-4,-5,7,-333,-154,24.700001,47.500000,979.119995
16/06/2023,17:58:51.607,1,17,994,-4,-5,-4,0,-340,-136,24.700001,47.500000,979.119995
16/06/2023,17:58:51.616,1,18,994,-4,-4,-5,24,-339,-148,24.700001,47.500000,979.119995
16/06/2023,17:58:51.626,2,18,996,-5,-4,-5,15,-328,-130,24.700001,47.500000,979.119995
16/06/2023,17:58:51.638,3,18,996,-5,-6,-3,30,-324,-136,24.700001,47.500000,979.119995
16/06/2023,17:58:51.644,2,18,994,-4,-3,-4,30,-324,-136,24.700001,47.500000,979.119995
16/06/2023,17:58:51.653,1,18,993,-4,-3,-6,12,-321,-132,24.700001,47.500000,979.119995
16/06/2023,17:58:51.663,1,17,992,-4,-3,-5,16,-306,-102,24.700001,47.500000,979.119995
16/06/2023,17:58:51.672,2,18,995,-4,-4,-5,30,-312,-114,24.700001,47.500000,979.119995
16/06/2023,17:58:51.682,1,19,996,-4,-4,-4,34,-301,-96,24.700001,47.500000,979.119995
16/06/2023,17:58:51.694,2,18,994,-4,-4,-4,48,-292,-97,24.700001,47.500000,979.119995
16/06/2023,17:58:51.701,4,18,994,-5,-3,-4,30,-268,-85,24.700001,47.500000,979.119995
16/06/2023,17:58:51.710,4,19,994,-5,-3,-5,31,-280,-60,24.700001,47.500000,979.119995
16/06/2023,17:58:51.719,1,18,995,-4,-4,-4,43,-268,-82,24.700001,47.500000,979.119995
16/06/2023,17:58:51.729,1,18,994,-5,-3,-5,39,-249,-72,24.700001,47.500000,979.119995
16/06/2023,17:58:51.737,1,20,993,-5,-4,-4,39,-249,-72,24.700001,47.500000,979.119995
16/06/2023,17:58:51.747,0,18,993,-5,-4,-4,39,-252,-55,24.700001,47.500000,979.119995
16/06/2023,17:58:51.757,3,16,994,-5,-4,-5,52,-234,-60,24.700001,47.500000,979.119995
16/06/2023,17:58:51.766,3,17,994,-4,-4,-4,37,-246,-48,24.700001,47.500000,979.119995
16/06/2023,17:58:51.776,1,18,995,-6,-4,-5,48,-216,-52,24.700001,47.500000,979.119995
16/06/2023,17:58:51.785,0,18,994,-5,-3,-5,34,-253,-45,24.700001,47.500000,979.119995
16/06/2023,17:58:51.794,1,16,993,-5,-3,-5,55,-214,-48,24.700001,47.500000,979.119995
16/06/2023,17:58:51.804,2,18,995,-5,-3,-4,55,-214,-48,24.700001,48.200001,979.119995
16/06/2023,17:58:51.813,1,18,996,-5,-3,-5,66,-205,-60,24.700001,48.200001,979.140015
16/06/2023,17:58:51.822,2,19,994,-4,-4,-5,66,-205,-60,24.700001,48.200001,979.140015
16/06/2023,17:58:51.831,3,20,993,-4,-3,-5,67,-205,-46,24.700001,48.200001,979.140015
16/06/2023,17:58:51.841,2,20,995,-4,-4,-4,72,-213,-48,24.700001,48.200001,979.140015
16/06/2023,17:58:51.850,1,20,998,-5,-4,-5,55,-210,-27,24.700001,48.200001,979.140015
16/06/2023,17:58:51.860,1,17,996,-5,-4,-5,46,-228,-58,24.700001,48.200001,979.140015
16/06/2023,17:58:51.869,1,16,994,-4,-3,-4,69,-199,-25,24.700001,48.200001,979.140015
16/06/2023,17:58:51.879,1,17,994,-4,-4,-5,76,-207,-54,24.700001,48.200001,979.140015
16/06/2023,17:58:51.888,2,19,992,-4,-4,-6,82,-199,-37,24.700001,48.200001,979.140015
16/06/2023,17:58:51.897,3,18,994,-5,-3,-5,76,-196,-52,24.700001,48.200001,979.140015
16/06/2023,17:58:51.907,3,16,995,-6,-4,-4,96,-204,-42,24.700001,48.200001,979.140015
16/06/2023,17:58:51.915,3,16,995,-5,-4,-5,96,-204,-42,24.700001,48.200001,979.140015
16/06/2023,17:58:51.925,2,19,994,-5,-4,-5,87,-198,-37,24.700001,48.200001,979.140015
16/06/2023,17:58:51.935,4,20,993,-6,-5,-5,79,-202,-42,24.700001,48.200001,979.140015
16/06/2023,17:58:51.944,2,17,994,-5,-5,-7,97,-199,-28,24.700001,48.200001,979.140015
16/06/2023,17:58:51.954,0,19,997,-4,-4,-6,78,-193,-28,24.700001,48.200001,979.140015
16/06/2023,17:58:51.963,1,18,996,-5,-4,-5,99,-201,-25,24.700001,48.200001,979.140015
16/06/2023,17:58:51.972,1,17,993,-4,-4,-4,90,-204,-19,24.700001,48.200001,979.140015
16/06/2023,17:58:51.982,1,17,992,-4,-5,-5,91,-184,-22,24.700001,48.200001,979.140015
16/06/2023,17:58:51.991,1,17,993,-4,-4,-5,111,-193,-36,24.700001,48.200001,979.140015
16/06/2023,17:58:52.000,1,17,996,-5,-4,-5,96,-193,-31,24.700001,48.200001,979.140015
16/06/2023,17:58:52.009,2,18,996,-4,-4,-5,96,-193,-31,24.700001,48.200001,979.140015
16/06/2023,17:58:52.019,2,18,994,-5,-4,-5,103,-190,-19,24.700001,48.200001,979.140015
16/06/2023,17:58:52.028,1,17,994,-4,-4,-5,105,-178,-25,24.700001,48.200001,979.140015
16/06/2023,17:58:52.038,2,17,993,-5,-3,-5,103,-189,-15,24.700001,48.200001,979.140015
16/06/2023,17:58:52.047,3,16,993,-5,-3,-5,115,-169,-10,24.700001,48.200001,979.140015
16/06/2023,17:58:52.057,4,19,992,-4,-4,-4,108,-169,-13,24.700001,48.200001,979.140015
16/06/2023,17:58:52.066,4,18,991,-5,-4,-5,99,-187,-19,24.700001,48.200001,979.140015
16/06/2023,17:58:52.075,2,18,993,-5,-4,-4,108,-180,3,24.700001,48.200001,979.140015
16/06/2023,17:58:52.085,2,20,996,-6,-5,-4,102,-160,-10,24.700001,48.200001,979.140015
16/06/2023,17:58:52.093,2,18,997,-5,-5,-4,102,-160,-10,24.700001,48.200001,979.140015
16/06/2023,17:58:52.103,3,19,994,-4,-5,-4,118,-183,-6,24.700001,48.200001,979.140015
16/06/2023,17:58:52.113,3,18,994,-5,-4,-6,120,-169,-7,24.700001,48.200001,979.140015
16/06/2023,17:58:52.122,0,17,995,-5,-4,-5,112,-166,-3,24.700001,48.200001,979.140015
16/06/2023,17:58:52.132,0,18,995,-5,-3,-5,102,-166,12,24.700001,48.200001,979.140015
16/06/2023,17:58:52.141,0,20,994,-4,-3,-4,118,-145,-9,24.700001,48.200001,979.140015
16/06/2023,17:58:52.150,1,19,994,-4,-3,-4,108,-144,-6,24.700001,48.200001,979.140015
16/06/2023,17:58:52.160,0,17,995,-4,-3,-4,115,-160,6,24.700001,48.200001,979.140015
16/06/2023,17:58:52.169,0,16,993,-4,-4,-6,109,-147,21,24.700001,48.200001,979.140015
16/06/2023,17:58:52.178,1,16,992,-5,-3,-6,112,-144,-6,24.700001,48.200001,979.140015
16/06/2023,17:58:52.187,0,18,995,-5,-4,-4,112,-144,-6,24.700001,48.200001,979.140015
16/06/2023,17:58:52.197,2,17,995,-4,-5,-4,93,-153,12,24.700001,48.200001,979.140015
16/06/2023,17:58:52.207,2,17,994,-4,-5,-4,93,-153,12,24.700001,48.200001,979.140015
16/06/2023,17:58:52.216,2,17,996,-4,-5,-5,81,-150,0,24.700001,48.200001,979.140015
16/06/2023,17:58:52.225,2,18,997,-5,-6,-5,99,-157,4,24.700001,48.200001,979.140015
16/06/2023,17:58:52.235,1,20,996,-5,-4,-5,96,-150,-6,24.700001,48.200001,979.140015
16/06/2023,17:58:52.244,1,20,995,-5,-3,-5,102,-136,-4,24.700001,48.200001,979.140015
16/06/2023,17:58:52.253,1,19,993,-5,-3,-5,97,-139,3,24.700001,48.200001,979.140015
16/06/2023,17:58:52.263,1,18,993,-5,-4,-5,99,-136,12,24.700001,48.200001,979.140015
16/06/2023,17:58:52.271,1,18,993,-5,-4,-5,99,-136,12,24.700001,48.200001,979.140015
16/06/2023,17:58:52.281,2,18,994,-5,-4,-6,99,-151,15,24.700001,48.200001,979.140015
16/06/2023,17:58:52.291,4,20,995,-4,-3,-6,84,-156,13,24.700001,48.200001,979.140015
16/06/2023,17:58:52.300,3,20,995,-4,-5,-4,99,-145,12,24.700001,48.200001,979.140015
16/06/2023,17:58:52.310,2,20,996,-5,-4,-4,93,-121,9,24.700001,48.200001,979.140015
16/06/2023,17:58:52.319,2,19,995,-5,-4,-4,90,-153,24,24.700001,48.200001,979.140015
16/06/2023,17:58:52.328,4,18,992,-6,-4,-4,90,-138,10,24.700001,48.200001,979.140015
16/06/2023,17:58:52.338,5,18,993,-5,-5,-4,84,-138,12,24.700001,48.200001,979.140015
16/06/2023,17:58:52.347,5,18,996,-5,-4,-4,84,-127,15,24.700001,48.200001,979.140015
16/06/2023,17:58:52.356,2,19,995,-4,-3,-5,81,-165,6,24.700001,48.200001,979.140015
16/06/2023,17:58:52.365,0,20,995,-4,-4,-4,81,-165,6,24.700001,48.200001,979.140015
16/06/2023,17:58:52.375,2,19,995,-4,-4,-4,96,-145,24,24.700001,48.200001,979.140015
16/06/2023,17:58:52.385,3,18,995,-4,-3,-5,99,-127,6,24.700001,48.200001,979.140015
16/06/2023,17:58:52.394,5,16,995,-5,-4,-5,79,-150,7,24.700001,48.200001,979.140015
16/06/2023,17:58:52.403,3,19,996,-5,-3,-5,88,-124,19,24.700001,48.200001,979.140015
16/06/2023,17:58:52.413,2,20,993,-4,-5,-5,91,-132,18,24.700001,48.200001,979.140015
16/06/2023,17:58:52.422,3,20,991,-4,-7,-6,94,-138,45,24.700001,48.200001,979.140015
16/06/2023,17:58:52.431,4,20,993,-5,-5,-5,90,-127,7,24.700001,48.200001,979.140015
16/06/2023,17:58:52.441,5,19,993,-4,-5,-5,100,-118,15,24.700001,48.200001,979.140015
16/06/2023,17:58:52.450,1,18,992,-5,-4,-5,94,-135,15,24.700001,48.200001,979.140015
16/06/2023,17:58:52.459,1,20,994,-5,-3,-5,94,-135,15,24.700001,48.200001,979.140015
16/06/2023,17:58:52.468,4,22,996,-5,-4,-5,91,-138,10,24.700001,48.200001,979.140015
16/06/2023,17:58:52.478,2,19,997,-4,-4,-5,84,-130,7,24.700001,48.200001,979.140015
16/06/2023,17:58:52.488,1,20,995,-4,-3,-4,100,-115,19,24.700001,48.200001,979.140015
16/06/2023,17:58:52.497,3,21,995,-4,-3,-5,105,-132,6,24.700001,48.200001,979.140015
16/06/2023,17:58:52.506,2,18,995,-5,-4,-5,93,-136,3,24.700001,48.200001,979.140015
16/06/2023,17:58:52.516,1,18,994,-5,-3,-6,103,-142,9,24.700001,48.200001,979.140015
16/06/2023,17:58:52.525,1,18,994,-6,-3,-5,103,-114,18,24.700001,48.200001,979.140015
16/06/2023,17:58:52.534,0,19,996,-6,-3,-5,112,-132,7,24.700001,48.200001,979.140015
16/06/2023,17:58:52.544,0,19,996,-5,-3,-5,96,-115,27,24.700001,48.200001,979.140015
16/06/2023,17:58:52.553,3,19,993,-4,-3,-4,96,-115,27,24.700001,48.200001,979.140015
16/06/2023,17:58:52.562,2,19,994,-4,-4,-3,97,-126,33,24.700001,48.200001,979.140015
16/06/2023,17:58:52.572,2,18,995,-5,-3,-5,109,-108,1,24.700001,48.200001,979.140015
16/06/2023,17:58:52.581,2,18,996,-5,-4,-5,102,-117,19,24.700001,48.200001,979.140015
16/06/2023,17:58:52.591,2,19,997,-5,-3,-5,88,-112,28,24.700001,48.200001,979.140015
16/06/2023,17:58:52.600,4,19,995,-5,-4,-4,76,-120,25,24.700001,48.200001,979.140015
16/06/2023,17:58:52.609,3,19,995,-4,-4,-4,91,-123,15,24.700001,48.200001,979.140015
16/06/2023,17:58:52.619,2,19,995,-4,-3,-5,105,-105,6,24.700001,48.200001,979.140015
16/06/2023,17:58:52.628,2,19,995,-5,-4,-4,103,-108,13,24.700001,48.200001,979.140015
16/06/2023,17:58:52.637,3,18,994,-4,-4,-4,91,-127,18,24.700001,48.200001,979.140015
16/06/2023,17:58:52.646,3,18,992,-5,-4,-5,91,-127,18,24.700001,48.200001,979.140015
16/06/2023,17:58:52.656,2,18,992,-6,-3,-5,93,-121,19,24.700001,48.200001,979.140015
16/06/2023,17:58:52.666,1,18,991,-4,-4,-5,79,-111,9,24.700001,48.200001,979.140015
16/06/2023,17:58:52.675,2,18,992,-5,-4,-5,91,-133,9,24.700001,48.200001,979.140015
16/06/2023,17:58:52.684,1,17,995,-5,-4,-5,88,-115,9,24.700001,48.200001,979.140015
16/06/2023,17:58:52.694,0,19,995,-5,-4,-6,91,-114,13,24.700001,48.200001,979.140015
16/06/2023,17:58:52.703,1,19,995,-4,-4,-5,94,-106,12,24.700001,48.200001,979.140015
16/06/2023,17:58:52.712,2,18,994,-5,-5,-5,100,-129,24,24.700001,48.200001,979.140015
16/06/2023,17:58:52.722,4,18,994,-5,-5,-5,108,-94,22,24.700001,48.200001,979.140015
16/06/2023,17:58:52.731,2,19,996,-5,-5,-5,96,-111,3,24.700001,48.200001,979.140015
16/06/2023,17:58:52.740,1,18,995,-4,-4,-6,96,-111,3,24.700001,48.200001,979.140015
16/06/2023,17:58:52.749,0,20,984,-5,-5,-6,99,-109,9,24.700001,48.200001,979.140015
16/06/2023,17:58:52.759,6,14,964,3,-15,-5,100,-120,13,24.700001,48.200001,979.140015
16/06/2023,17:58:52.769,12,11,951,3,-19,-5,94,-105,0,24.700001,48.200001,979.140015
16/06/2023,17:58:52.778,3,20,964,-2,-9,-5,96,-103,19,24.700001,48.200001,979.140015
16/06/2023,17:58:52.787,-10,23,1010,-5,-2,-5,105,-108,-4,24.700001,48.200001,979.140015
16/06/2023,17:58:52.797,-12,25,1006,-4,-5,-5,91,-108,4,24.700001,48.200001,979.140015
16/06/2023,17:58:52.806,-4,20,975,-5,-5,-4,105,-121,10,24.700001,48.200001,979.140015
16/06/2023,17:58:52.815,-1,16,984,-5,-2,-5,84,-117,15,24.700001,48.200001,979.140015
16/06/2023,17:58:52.824,-1,18,999,-5,-2,-5,84,-117,15,24.700001,48.200001,979.140015
16/06/2023,17:58:52.834,2,19,997,-6,-2,-4,100,-123,15,24.700001,48.200001,979.140015
16/06/2023,17:58:52.844,4,17,999,-5,-3,-4,97,-114,-3,24.700001,48.200001,979.140015
16/06/2023,17:58:52.853,2,16,1002,-5,-5,-5,100,-114,25,24.700001,48.200001,979.119995
16/06/2023,17:58:52.862,2,18,996,-4,-5,-5,100,-114,25,24.700001,48.200001,979.119995
16/06/2023,17:58:52.872,3,19,995,-3,-4,-5,109,-102,3,24.700001,48.200001,979.119995
16/06/2023,17:58:52.881,1,18,994,-4,-4,-5,90,-102,9,24.700001,48.200001,979.119995
16/06/2023,17:58:52.890,2,17,999,-4,-4,-5,112,-133,1,24.700001,48.200001,979.119995
16/06/2023,17:58:52.900,3,17,995,-4,-4,-5,88,-126,10,24.700001,48.200001,979.119995
16/06/2023,17:58:52.909,3,19,994,-5,-4,-5,88,-126,10,24.700001,48.200001,979.119995
16/06/2023,17:58:52.918,3,19,999,-4,-3,-4,97,-121,3,24.700001,48.200001,979.119995
16/06/2023,17:58:52.928,2,19,993,-3,-4,-4,115,-118,4,24.700001,48.200001,979.119995
16/06/2023,17:58:52.937,4,20,987,-4,-5,-4,93,-121,9,24.700001,48.200001,979.119995
16/06/2023,17:58:52.947,2,19,991,-5,-4,-4,91,-117,19,24.700001,48.200001,979.119995
16/06/2023,17:58:52.956,0,17,996,-5,-4,-4,111,-121,16,24.700001,48.200001,979.119995
16/06/2023,17:58:52.965,0,18,993,-5,-4,-5,99,-127,3,24.700001,48.200001,979.119995
16/06/2023,17:58:52.975,0,18,993,-4,-3,-5,93,-106,1,24.700001,48.200001,979.119995
16/06/2023,17:58:52.984,1,19,995,-4,-3,-5,100,-105,13,24.700001,48.200001,979.119995
16/06/2023,17:58:52.993,1,18,998,-5,-4,-4,100,-105,13,24.700001,48.200001,979.119995
16/06/2023,17:58:53.002,-1,17,996,-5,-4,-6,90,-108,21,24.700001,48.200001,979.119995
16/06/2023,17:58:53.012,-1,19,996,-5,-4,-5,103,-114,28,24.700001,48.200001,979.119995
16/06/2023,17:58:53.022,1,20,993,-5,-5,-5,105,-114,10,24.700001,48.200001,979.119995
16/06/2023,17:58:53.031,1,19,996,-5,-5,-5,108,-96,1,24.700001,48.200001,979.119995
16/06/2023,17:58:53.040,0,17,997,-4,-3,-5,108,-105,27,24.700001,48.200001,979.119995
16/06/2023,17:58:53.050,0,18,993,-5,-3,-6,85,-114,1,24.700001,48.200001,979.119995
16/06/2023,17:58:53.059,0,18,995,-5,-4,-5,102,-100,6,24.700001,48.200001,979.119995
16/06/2023,17:58:53.068,1,17,995,-4,-6,-5,99,-114,13,24.700001,48.200001,979.119995
16/06/2023,17:58:53.078,4,17,994,-4,-5,-6,109,-117,-6,24.700001,48.200001,979.119995
16/06/2023,17:58:53.087,3,18,994,-4,-5,-6,109,-117,-6,24.700001,48.200001,979.119995
16/06/2023,17:58:53.097,1,19,995,-5,-4,-4,94,-117,-4,24.700001,48.200001,979.119995
16/06/2023,17:58:53.106,2,17,996,-5,-4,-5,105,-126,12,24.700001,48.200001,979.119995
16/06/2023,17:58:53.115,2,16,996,-5,-5,-5,87,-117,3,24.700001,48.200001,979.119995
16/06/2023,17:58:53.125,2,17,992,-5,-5,-4,100,-102,0,24.700001,48.200001,979.119995
16/06/2023,17:58:53.134,3,17,992,-5,-4,-5,111,-112,27,24.700001,48.200001,979.119995
16/06/2023,17:58:53.143,2,15,993,-4,-4,-5,105,-106,12,24.700001,48.200001,979.119995
16/06/2023,17:58:53.153,2,17,994,-6,-2,-6,96,-109,-19,24.700001,48.200001,979.119995
16/06/2023,17:58:53.162,2,19,994,-5,-3,-5,94,-114,-13,24.700001,48.200001,979.119995
16/06/2023,17:58:53.171,4,19,995,-5,-3,-5,94,-114,-13,24.700001,48.200001,979.119995
16/06/2023,17:58:53.180,5,18,992,-5,-4,-4,93,-111,16,24.700001,48.200001,979.119995
16/06/2023,17:58:53.190,2,17,994,-4,-3,-4,108,-100,13,24.700001,48.200001,979.119995
16/06/2023,17:58:53.200,0,18,996,-4,-3,-5,112,-121,6,24.700001,48.200001,979.119995
16/06/2023,17:58:53.209,0,19,994,-4,-5,-5,61,-109,16,24.700001,48.200001,979.119995
16/06/2023,17:58:53.218,0,21,992,-5,-5,-5,106,-108,1,24.700001,48.200001,979.119995
16/06/2023,17:58:53.228,1,21,995,-5,-4,-5,103,-117,4,24.700001,48.200001,979.119995
16/06/2023,17:58:53.237,2,19,998,-6,-3,-6,106,-117,3,24.700001,48.200001,979.119995
16/06/2023,17:58:53.246,1,20,996,-6,-3,-6,93,-109,10,24.700001,48.200001,979.119995
16/06/2023,17:58:53.256,2,17,994,-6,-3,-5,96,-118,6,24.700001,48.200001,979.119995
16/06/2023,17:58:53.265,1,17,996,-5,-3,-5,96,-118,6,24.700001,48.200001,979.119995
16/06/2023,17:58:53.274,1,18,995,-5,-4,-5,88,-102,19,24.700001,48.200001,979.119995
16/06/2023,17:58:53.284,1,19,994,-5,-3,-6,103,-117,13,24.700001,48.200001,979.119995
16/06/2023,17:58:53.293,2,20,994,-5,-3,-6,85,-120,1,24.700001,48.200001,979.119995
16/06/2023,17:58:53.303,5,18,991,-4,-4,-5,79,-112,13,24.700001,48.200001,979.119995
16/06/2023,17:58:53.312,3,18,993,-5,-4,-4,99,-109,-3,24.700001,48.200001,979.119995
16/06/2023,17:58:53.321,3,18,993,-5,-3,-5,97,-111,7,24.700001,48.200001,979.119995
16/06/2023,17:58:53.331,1,20,996,-5,-4,-5,93,-112,12,24.700001,48.200001,979.119995
16/06/2023,17:58:53.340,0,21,994,-5,-5,-5,105,-124,4,24.700001,48.200001,979.119995
16/06/2023,17:58:53.350,0,19,994,-5,-3,-5,103,-117,1,24.700001,48.200001,979.119995
16/06/2023,17:58:53.358,1,16,998,-5,-4,-5,103,-117,1,24.700001,48.200001,979.119995
16/06/2023,17:58:53.368,2,18,997,-4,-4,-5,94,-109,19,24.700001,48.200001,979.119995
16/06/2023,17:58:53.378,3,19,994,-5,-4,-4,102,-114,28,24.700001,48.200001,979.119995
16/06/2023,17:58:53.387,4,17,994,-5,-2,-5,96,-115,12,24.700001,48.200001,979.119995
16/06/2023,17:58:53.396,3,16,993,-5,-4,-5,97,-102,9,24.700001,48.200001,979.119995
16/06/2023,17:58:53.406,1,16,992,-5,-3,-4,84,-118,-6,24.700001,48.200001,979.119995
16/06/2023,17:58:53.415,1,18,994,-5,-3,-5,103,-120,9,24.700001,48.200001,979.119995
16/06/2023,17:58:53.424,0,19,996,-6,-3,-6,96,-127,10,24.700001,48.200001,979.119995
16/06/2023,17:58:53.434,0,17,996,-6,-4,-5,90,-102,6,24.700001,48.200001,979.119995
16/06/2023,17:58:53.443,3,18,995,-5,-4,-5,90,-102,6,24.700001,48.200001,979.119995
16/06/2023,17:58:53.452,2,20,995,-5,-5,-5,100,-123,3,24.700001,48.200001,979.119995
16/06/2023,17:58:53.462,1,20,994,-5,-4,-5,91,-117,21,24.700001,48.200001,979.119995
16/06/2023,17:58:53.471,3,20,994,-5,-4,-5,99,-108,4,24.700001,48.200001,979.119995
16/06/2023,17:58:53.481,4,20,995,-6,-5,-4,91,-127,0,24.700001,48.200001,979.119995
16/06/2023,17:58:53.490,4,20,996,-5,-2,-5,106,-118,-6,24.700001,48.200001,979.119995
16/06/2023,17:58:53.499,1,21,997,-5,-2,-4,103,-112,-1,24.700001,48.200001,979.119995
16/06/2023,17:58:53.508,1,20,995,-5,-4,-5,85,-123,-12,24.700001,48.200001,979.119995
16/06/2023,17:58:53.518,1,16,994,-6,-4,-5,105,-118,4,24.700001,48.200001,979.119995
16/06/2023,17:58:53.528,2,17,997,-6,-5,-5,88,-124,12,24.700001,48.200001,979.119995
16/06/2023,17:58:53.536,2,19,996,-6,-5,-5,88,-124,12,24.700001,48.200001,979.119995
16/06/2023,17:58:53.546,0,19,993,-5,-4,-4,93,-111,1,24.700001,48.200001,979.119995
16/06/2023,17:58:53.556,0,19,996,-4,-5,-5,90,-123,0,24.700001,48.200001,979.119995
16/06/2023,17:58:53.565,1,19,998,-4,-5,-6,105,-130,7,24.700001,48.200001,979.119995
16/06/2023,17:58:53.574,4,18,998,-5,-4,-5,102,-127,-12,24.700001,48.200001,979.119995
16/06/2023,17:58:53.584,4,18,996,-5,-4,-5,96,-129,3,24.700001,48.200001,979.119995
16/06/2023,17:58:53.593,4,18,994,-5,-4,-5,87,-114,-6,24.700001,48.200001,979.119995
16/06/2023,17:58:53.606,2,21,994,-5,-4,-5,88,-115,0,24.700001,48.200001,979.119995
16/06/2023,17:58:53.612,0,19,986,-5,-3,-5,93,-99,10,24.700001,48.200001,979.119995
16/06/2023,17:58:53.621,0,18,987,-4,-2,-6,93,-99,10,24.700001,48.200001,979.119995
16/06/2023,17:58:53.630,0,21,991,-4,-3,-5,94,-124,6,24.700001,48.200001,979.119995
16/06/2023,17:58:53.640,0,22,994,-5,-4,-4,88,-102,1,24.700001,48.200001,979.119995
16/06/2023,17:58:53.649,0,19,998,-6,-4,-5,102,-127,-16,24.700001,48.200001,979.119995
16/06/2023,17:58:53.662,0,20,995,-5,-3,-6,99,-130,-21,24.700001,48.200001,979.119995
16/06/2023,17:58:53.668,0,20,995,-6,-3,-4,73,-141,-12,24.700001,48.200001,979.119995
16/06/2023,17:58:53.677,0,21,995,-6,-4,-4,100,-111,4,24.700001,48.200001,979.119995
16/06/2023,17:58:53.687,0,20,997,-6,-5,-5,88,-120,-1,24.700001,48.200001,979.119995
16/06/2023,17:58:53.696,0,19,995,-5,-5,-5,97,-118,-16,24.700001,48.200001,979.119995
16/06/2023,17:58:53.706,2,16,993,-5,-3,-6,84,-123,-25,24.700001,48.200001,979.119995
16/06/2023,17:58:53.717,3,16,994,-5,-4,-5,84,-123,-25,24.700001,48.200001,979.119995
16/06/2023,17:58:53.724,1,18,997,-5,-5,-5,105,-114,-9,24.700001,48.200001,979.119995
16/06/2023,17:58:53.734,1,20,997,-5,-6,-5,96,-111,-13,24.700001,48.200001,979.119995
16/06/2023,17:58:53.743,4,22,997,-5,-4,-4,94,-117,-9,24.700001,48.200001,979.119995
16/06/2023,17:58:53.752,4,20,997,-5,-3,-4,100,-124,-27,24.700001,48.200001,979.119995
16/06/2023,17:58:53.762,3,19,994,-5,-4,-4,93,-117,-12,24.700001,48.200001,979.119995
16/06/2023,17:58:53.771,5,19,993,-4,-2,-5,96,-115,4,24.700001,48.200001,979.119995
16/06/2023,17:58:53.780,2,19,993,-5,-3,-5,100,-127,6,24.700001,48.200001,979.119995
16/06/2023,17:58:53.790,2,18,996,-4,-5,-5,91,-108,1,24.700001,48.200001,979.119995
16/06/2023,17:58:53.799,4,19,996,-4,-5,-5,91,-108,1,24.700001,48.200001,979.119995
16/06/2023,17:58:53.808,4,19,993,-4,-4,-5,93,-108,-21,24.700001,48.200001,979.119995
16/06/2023,17:58:53.818,1,19,993,-4,-3,-5,90,-123,-3,24.700001,48.200001,979.119995
16/06/2023,17:58:53.830,0,20,996,-4,-4,-4,99,-118,-25,24.700001,48.200001,979.119995
16/06/2023,17:58:53.837,0,20,997,-4,-4,-4,69,-99,13,24.700001,48.200001,979.119995
16/06/2023,17:58:53.846,1,16,995,-3,-5,-5,108,-108,1,24.700001,48.200001,979.119995
16/06/2023,17:58:53.855,2,16,994,-3,-4,-4,97,-117,-10,24.700001,48.200001,979.119995
16/06/2023,17:58:53.865,2,19,994,-4,-4,-5,90,-102,-16,24.700001,48.200001,979.119995
16/06/2023,17:58:53.874,3,18,996,-4,-6,-5,99,-132,-18,24.700001,48.200001,979.119995
16/06/2023,17:58:53.887,3,18,993,-5,-5,-5,85,-111,-24,24.700001,48.200001,979.119995
16/06/2023,17:58:53.892,0,18,993,-5,-3,-5,85,-111,-24,24.700001,48.200001,979.119995
16/06/2023,17:58:53.902,0,20,994,-6,-3,-5,82,-111,-15,24.700001,48.099998,979.059998
16/06/2023,17:58:53.912,2,20,994,-6,-3,-4,100,-111,-10,24.700001,48.099998,979.059998
16/06/2023,17:58:53.921,1,17,995,-5,-4,-4,78,-135,-10,24.700001,48.099998,979.059998
16/06/2023,17:58:53.930,1,18,996,-4,-4,-5,82,-135,-4,24.700001,48.099998,979.059998
16/06/2023,17:58:53.940,0,19,995,-4,-4,-5,85,-139,-15,24.700001,48.099998,979.059998
16/06/2023,17:58:53.949,-1,20,1004,-4,-3,-5,90,-130,-10,24.700001,48.099998,979.059998
16/06/2023,17:58:53.958,1,19,1010,-4,-4,-4,87,-132,-1,24.700001,48.099998,979.059998
16/06/2023,17:58:53.968,2,19,996,-5,-4,-5,99,-127,-12,24.700001,48.099998,979.059998
16/06/2023,17:58:53.977,0,20,994,-6,-2,-5,99,-127,-12,24.700001,48.099998,979.059998
16/06/2023,17:58:53.986,0,19,1002,-5,-2,-5,93,-121,-13,24.700001,48.099998,979.059998
16/06/2023,17:58:53.996,2,20,996,-3,-3,-5,88,-108,-13,24.700001,48.099998,979.059998
16/06/2023,17:58:54.005,0,20,994,-5,-4,-5,99,-133,-15,24.700001,48.099998,979.059998
16/06/2023,17:58:54.015,0,20,994,-5,-5,-5,96,-129,-22,24.700001,48.099998,979.059998
16/06/2023,17:58:54.024,0,17,1002,-5,-4,-5,97,-114,-19,24.700001,48.099998,979.059998
16/06/2023,17:58:54.033,3,15,998,-4,-5,-4,102,-115,-4,24.700001,48.099998,979.059998
16/06/2023,17:58:54.043,3,17,990,-5,-6,-4,90,-114,-15,24.700001,48.099998,979.059998
16/06/2023,17:58:54.052,0,20,993,-5,-5,-5,84,-111,-15,24.700001,48.099998,979.059998
16/06/2023,17:58:54.061,0,19,993,-4,-5,-6,84,-111,-15,24.700001,48.099998,979.059998
16/06/2023,17:58:54.070,2,18,994,-4,-6,-5,93,-111,-15,24.700001,48.099998,979.059998
16/06/2023,17:58:54.080,2,20,996,-4,-5,-5,84,-124,-39,24.700001,48.099998,979.059998
16/06/2023,17:58:54.090,0,19,995,-5,-5,-5,90,-132,-6,24.700001,48.099998,979.059998
16/06/2023,17:58:54.099,0,17,992,-5,-3,-5,108,-123,1,24.700001,48.099998,979.059998
16/06/2023,17:58:54.108,1,17,993,-4,-3,-4,87,-123,-7,24.700001,48.099998,979.059998
16/06/2023,17:58:54.118,1,18,995,-4,-4,-5,69,-121,-3,24.700001,48.099998,979.059998
16/06/2023,17:58:54.127,1,18,992,-5,-4,-5,84,-123,-28,24.700001,48.099998,979.059998
16/06/2023,17:58:54.136,2,17,993,-4,-4,-5,82,-135,-18,24.700001,48.099998,979.059998
16/06/2023,17:58:54.146,3,16,996,-5,-4,-5,99,-129,-21,24.700001,48.099998,979.059998
16/06/2023,17:58:54.155,2,19,995,-4,-3,-6,99,-129,-21,24.700001,48.099998,979.059998
16/06/2023,17:58:54.165,1,19,993,-5,-4,-5,70,-138,0,24.700001,48.099998,979.059998
16/06/2023,17:58:54.174,2,19,994,-5,-5,-5,90,-120,-19,24.700001,48.099998,979.059998
16/06/2023,17:58:54.183,1,18,995,-4,-4,-5,93,-114,-15,24.700001,48.099998,979.059998
16/06/2023,17:58:54.193,0,17,993,-5,-4,-5,88,-120,-7,24.700001,48.099998,979.059998
16/06/2023,17:58:54.202,0,19,993,-4,-4,-5,94,-127,-33,24.700001,48.099998,979.059998
16/06/2023,17:58:54.211,0,19,996,-4,-4,-6,106,-120,-30,24.700001,48.099998,979.059998
16/06/2023,17:58:54.221,0,18,995,-4,-3,-5,72,-117,3,24.700001,48.099998,979.059998
16/06/2023,17:58:54.230,3,18,995,-5,-3,-5,88,-139,-33,24.700001,48.099998,979.059998
16/06/2023,17:58:54.239,3,19,997,-5,-4,-5,88,-139,-33,24.700001,48.099998,979.059998
16/06/2023,17:58:54.248,0,17,994,-4,-4,-5,99,-138,-24,24.700001,48.099998,979.059998
16/06/2023,17:58:54.258,1,16,993,-4,-4,-5,93,-118,-19,24.700001,48.099998,979.059998
16/06/2023,17:58:54.268,2,18,992,-4,-6,-5,103,-130,-21,24.700001,48.099998,979.059998
16/06/2023,17:58:54.277,0,19,994,-4,-4,-6,90,-115,-16,24.700001,48.099998,979.059998
16/06/2023,17:58:54.286,1,19,996,-4,-4,-6,82,-124,-9,24.700001,48.099998,979.059998
16/06/2023,17:58:54.296,2,18,995,-5,-4,-6,82,-112,-27,24.700001,48.099998,979.059998
16/06/2023,17:58:54.305,3,15,992,-4,-4,-5,99,-139,-6,24.700001,48.099998,979.059998
16/06/2023,17:58:54.315,3,14,990,-4,-4,-4,88,-106,3,24.700001,48.099998,979.059998
16/06/2023,17:58:54.324,4,15,993,-4,-4,-4,84,-118,-25,24.700001,48.099998,979.059998
16/06/2023,17:58:54.333,3,17,997,-5,-4,-5,84,-118,-25,24.700001,48.099998,979.059998
16/06/2023,17:58:54.342,3,17,997,-5,-4,-5,88,-129,-9,24.700001,48.099998,979.059998
16/06/2023,17:58:54.352,3,19,993,-5,-2,-5,69,-127,-28,24.700001,48.099998,979.059998
16/06/2023,17:58:54.361,3,19,993,-5,-3,-4,100,-115,-22,24.700001,48.099998,979.059998
16/06/2023,17:58:54.371,3,17,994,-5,-5,-4,90,-129,-12,24.700001,48.099998,979.059998
16/06/2023,17:58:54.380,2,19,993,-5,-5,-4,102,-129,-28,24.700001,48.099998,979.059998
16/06/2023,17:58:54.389,1,18,995,-5,-5,-5,82,-105,-13,24.700001,48.099998,979.059998
16/06/2023,17:58:54.399,2,16,995,-5,-4,-5,78,-120,-10,24.700001,48.099998,979.059998
16/06/2023,17:58:54.408,4,17,994,-4,-4,-5,88,-114,-16,24.700001,48.099998,979.059998
16/06/2023,17:58:54.418,4,19,994,-5,-3,-5,96,-135,-27,24.700001,48.099998,979.059998
16/06/2023,17:58:54.426,0,18,994,-6,-4,-6,96,-135,-27,24.700001,48.099998,979.059998
16/06/2023,17:58:54.436,0,19,995,-6,-4,-6,79,-114,-15,24.700001,48.099998,979.059998
16/06/2023,17:58:54.446,0,22,993,-5,-3,-5,79,-118,-15,24.700001,48.099998,979.059998
16/06/2023,17:58:54.455,1,21,993,-5,-3,-4,91,-115,-3,24.700001,48.099998,979.059998
16/06/2023,17:58:54.464,2,19,993,-5,-3,-4,85,-121,-13,24.700001,48.099998,979.059998
16/06/2023,17:58:54.474,5,18,993,-4,-4,-5,93,-129,-31,24.700001,48.099998,979.059998
16/06/2023,17:58:54.483,5,19,994,-5,-4,-4,93,-108,-19,24.700001,48.099998,979.059998
16/06/2023,17:58:54.493,2,19,994,-5,-4,-5,81,-112,-27,24.700001,48.099998,979.059998
16/06/2023,17:58:54.502,0,17,993,-4,-5,-5,81,-124,-18,24.700001,48.099998,979.059998
16/06/2023,17:58:54.511,0,17,996,-4,-3,-5,81,-124,-18,24.700001,48.099998,979.059998
16/06/2023,17:58:54.520,2,18,996,-4,-4,-4,91,-115,0,24.700001,48.099998,979.059998
16/06/2023,17:58:54.530,1,19,994,-4,-4,-5,82,-123,-7,24.700001,48.099998,979.059998
16/06/2023,17:58:54.539,0,20,995,-6,-4,-5,75,-126,-12,24.700001,48.099998,979.059998
16/06/2023,17:58:54.549,2,20,998,-6,-4,-5,75,-123,-10,24.700001,48.099998,979.059998
16/06/2023,17:58:54.558,2,19,996,-5,-5,-5,88,-114,-1,24.700001,48.099998,979.059998
16/06/2023,17:58:54.567,3,17,992,-5,-3,-5,84,-120,-16,24.700001,48.099998,979.059998
16/06/2023,17:58:54.577,2,16,992,-5,-3,-5,102,-129,-18,24.700001,48.099998,979.059998
16/06/2023,17:58:54.586,0,16,995,-4,-4,-5,96,-121,-24,24.700001,48.099998,979.059998
16/06/2023,17:58:54.596,0,15,995,-4,-4,-5,76,-132,-6,24.700001,48.099998,979.059998
16/06/2023,17:58:54.604,1,16,995,-5,-5,-5,76,-132,-6,24.700001,48.099998,979.059998
16/06/2023,17:58:54.614,0,18,997,-4,-4,-5,79,-111,4,24.700001,48.099998,979.059998
16/06/2023,17:58:54.624,0,21,997,-5,-3,-5,79,-111,4,24.700001,48.099998,979.059998
16/06/2023,17:58:54.633,1,19,994,-5,-3,-5,96,-112,-18,24.700001,48.099998,979.059998
16/06/2023,17:58:54.642,2,16,995,-5,-3,-5,79,-133,-16,24.700001,48.099998,979.059998
16/06/2023,17:58:54.652,2,18,995,-4,-4,-6,90,-124,3,24.700001,48.099998,979.059998
16/06/2023,17:58:54.661,1,20,993,-4,-5,-5,94,-111,-25,24.700001,48.099998,979.059998
16/06/2023,17:58:54.671,0,17,992,-5,-5,-4,73,-114,-19,24.700001,48.099998,979.059998
16/06/2023,17:58:54.680,0,18,993,-5,-4,-4,84,-139,-21,24.700001,48.099998,979.059998
16/06/2023,17:58:54.689,0,18,993,-5,-4,-5,84,-139,-21,24.700001,48.099998,979.059998
16/06/2023,17:58:54.698,1,20,996,-5,-3,-6,88,-118,-22,24.700001,48.099998,979.059998
16/06/2023,17:58:54.708,3,20,996,-5,-4,-6,81,-130,-34,24.700001,48.099998,979.059998
16/06/2023,17:58:54.717,3,18,995,-5,-5,-5,73,-115,-16,24.700001,48.099998,979.059998
16/06/2023,17:58:54.727,3,20,995,-5,-4,-5,87,-124,-27,24.700001,48.099998,979.059998
16/06/2023,17:58:54.736,0,19,996,-5,-4,-4,87,-142,-31,24.700001,48.099998,979.059998
16/06/2023,17:58:54.745,1,19,996,-5,-4,-4,82,-123,-12,24.700001,48.099998,979.059998
16/06/2023,17:58:54.755,4,20,995,-5,-3,-4,84,-141,-13,24.700001,48.099998,979.059998
16/06/2023,17:58:54.764,2,19,994,-4,-3,-5,76,-100,-3,24.700001,48.099998,979.059998
16/06/2023,17:58:54.774,1,21,994,-4,-4,-4,70,-124,-16,24.700001,48.099998,979.059998
16/06/2023,17:58:54.782,0,20,994,-5,-5,-5,70,-124,-16,24.700001,48.099998,979.059998
16/06/2023,17:58:54.792,1,16,995,-5,-4,-5,81,-115,-9,24.700001,48.099998,979.059998
16/06/2023,17:58:54.802,4,18,996,-5,-4,-5,90,-126,-9,24.700001,48.099998,979.059998
16/06/2023,17:58:54.811,4,19,994,-4,-4,-4,72,-123,-22,24.700001,48.099998,979.059998
16/06/2023,17:58:54.820,2,19,993,-4,-5,-5,63,-118,-21,24.700001,48.099998,979.059998
16/06/2023,17:58:54.830,1,20,996,-5,-5,-5,76,-136,-12,24.700001,48.099998,979.059998
16/06/2023,17:58:54.839,0,20,995,-5,-5,-5,64,-111,7,24.700001,48.099998,979.059998
16/06/2023,17:58:54.849,0,20,994,-5,-4,-5,93,-127,-21,24.700001,48.099998,979.059998
16/06/2023,17:58:54.858,3,19,994,-5,-4,-5,85,-124,-10,24.700001,48.099998,979.059998
16/06/2023,17:58:54.867,3,19,993,-5,-5,-5,85,-115,-6,24.700001,48.099998,979.059998
16/06/2023,17:58:54.876,2,18,994,-6,-4,-6,85,-115,-6,24.700001,48.099998,979.059998
16/06/2023,17:58:54.885,3,18,993,-6,-4,-6,81,-126,-7,24.700001,48.099998,979.059998
16/06/2023,17:58:54.895,0,19,993,-5,-4,-5,85,-133,-22,24.700001,48.099998,979.059998
16/06/2023,17:58:54.905,0,19,992,-5,-4,-4,69,-126,-7,24.700001,48.099998,979.059998
16/06/2023,17:58:54.914,3,20,991,-5,-4,-6,82,-121,-16,24.700001,48.099998,979.059998
16/06/2023,17:58:54.923,1,19,994,-5,-4,-5,78,-130,-19,24.700001,48.099998,979.059998
16/06/2023,17:58:54.933,1,18,996,-5,-4,-5,100,-129,0,24.700001,48.099998,979.059998
16/06/2023,17:58:54.943,3,19,995,-4,-3,-4,100,-129,0,24.700001,48.200001,979.059998
16/06/2023,17:58:54.952,2,19,992,-4,-4,-5,97,-124,-7,24.700001,48.200001,979.070007
16/06/2023,17:58:54.960,2,17,993,-4,-4,-5,97,-124,-7,24.700001,48.200001,979.070007
16/06/2023,17:58:54.970,2,17,992,-4,-4,-5,75,-129,-3,24.700001,48.200001,979.070007
16/06/2023,17:58:54.980,0,19,995,-4,-4,-5,78,-126,-10,24.700001,48.200001,979.070007
16/06/2023,17:58:54.989,2,19,995,-4,-2,-5,67,-139,1,24.700001,48.200001,979.070007
16/06/2023,17:58:54.998,2,17,993,-5,-3,-5,97,-124,-15,24.700001,48.200001,979.070007
16/06/2023,17:58:55.008,3,18,994,-5,-4,-5,72,-118,-1,24.700001,48.200001,979.070007
16/06/2023,17:58:55.017,5,18,993,-4,-4,-5,82,-135,-9,24.700001,48.200001,979.070007
16/06/2023,17:58:55.027,2,17,992,-4,-4,-5,91,-126,-15,24.700001,48.200001,979.070007
16/06/2023,17:58:55.036,1,19,992,-5,-2,-5,96,-133,-7,24.700001,48.200001,979.070007
16/06/2023,17:58:55.045,0,18,992,-6,-5,-6,81,-141,-9,24.700001,48.200001,979.070007
16/06/2023,17:58:55.054,0,18,992,-5,-4,-6,81,-141,-9,24.700001,48.200001,979.070007
16/06/2023,17:58:55.064,0,19,994,-4,-4,-5,87,-130,-18,24.700001,48.200001,979.070007
16/06/2023,17:58:55.073,-1,20,996,-5,-5,-5,82,-139,-6,24.700001,48.200001,979.070007
16/06/2023,17:58:55.083,-1,18,993,-5,-5,-4,85,-135,-21,24.700001,48.200001,979.070007
16/06/2023,17:58:55.092,1,18,993,-5,-5,-5,81,-126,0,24.700001,48.200001,979.070007
16/06/2023,17:58:55.101,2,19,994,-5,-5,-5,87,-133,-9,24.700001,48.200001,979.070007
16/06/2023,17:58:55.111,2,20,994,-4,-4,-5,82,-129,-6,24.700001,48.200001,979.070007
16/06/2023,17:58:55.120,4,21,996,-5,-2,-5,91,-142,1,24.700001,48.200001,979.070007
16/06/2023,17:58:55.130,4,19,994,-6,-4,-5,69,-151,4,24.700001,48.200001,979.070007
16/06/2023,17:58:55.138,3,18,993,-5,-4,-5,69,-151,4,24.700001,48.200001,979.070007
16/06/2023,17:58:55.148,2,19,995,-4,-4,-5,75,-147,-6,24.700001,48.200001,979.070007
16/06/2023,17:58:55.158,1,19,996,-5,-5,-4,82,-127,12,24.700001,48.200001,979.070007
16/06/2023,17:58:55.167,0,20,995,-4,-5,-5,76,-135,-7,24.700001,48.200001,979.070007
16/06/2023,17:58:55.176,0,21,996,-5,-5,-5,75,-133,-15,24.700001,48.200001,979.070007
16/06/2023,17:58:55.186,2,20,996,-4,-4,-5,66,-117,13,24.700001,48.200001,979.070007
16/06/2023,17:58:55.195,3,18,994,-5,-4,-4,79,-142,6,24.700001,48.200001,979.070007
16/06/2023,17:58:55.205,2,18,994,-4,-5,-4,63,-129,0,24.700001,48.200001,979.070007
16/06/2023,17:58:55.214,0,15,993,-5,-4,-5,66,-120,1,24.700001,48.200001,979.070007
16/06/2023,17:58:55.223,0,15,993,-4,-3,-5,81,-126,4,24.700001,48.200001,979.070007
16/06/2023,17:58:55.232,1,16,993,-5,-3,-5,81,-126,4,24.700001,48.200001,979.070007
16/06/2023,17:58:55.241,2,17,993,-4,-4,-5,67,-132,16,24.700001,48.200001,979.070007
16/06/2023,17:58:55.251,2,19,994,-5,-4,-6,90,-130,6,24.700001,48.200001,979.070007
16/06/2023,17:58:55.261,2,20,993,-4,-4,-6,73,-135,3,24.700001,48.200001,979.070007
16/06/2023,17:58:55.270,2,20,994,-4,-4,-5,69,-126,1,24.700001,48.200001,979.070007
16/06/2023,17:58:55.279,2,19,994,-4,-5,-5,87,-130,-13,24.700001,48.200001,979.070007
16/06/2023,17:58:55.289,0,19,992,-4,-5,-5,81,-141,10,24.700001,48.200001,979.070007
16/06/2023,17:58:55.298,0,20,994,-4,-3,-5,73,-130,10,24.700001,48.200001,979.070007
16/06/2023,17:58:55.308,2,19,995,-4,-3,-5,75,-132,-4,24.700001,48.200001,979.070007
16/06/2023,17:58:55.317,3,20,993,-4,-4,-5,69,-165,6,24.700001,48.200001,979.070007
16/06/2023,17:58:55.326,3,19,992,-5,-5,-5,69,-165,6,24.700001,48.200001,979.070007
16/06/2023,17:58:55.335,5,19,992,-5,-4,-5,79,-139,-13,24.700001,48.200001,979.070007
16/06/2023,17:58:55.345,2,18,992,-4,-4,-5,72,-136,3,24.700001,48.200001,979.070007
16/06/2023,17:58:55.354,0,16,994,-4,-4,-4,79,-138,13,24.700001,48.200001,979.070007
16/06/2023,17:58:55.364,2,18,995,-5,-4,-5,84,-138,6,24.700001,48.200001,979.070007
16/06/2023,17:58:55.373,1,19,993,-4,-4,-4,73,-147,7,24.700001,48.200001,979.070007
16/06/2023,17:58:55.383,0,20,996,-4,-4,-5,76,-171,-1,24.700001,48.200001,979.070007
16/06/2023,17:58:55.392,1,19,996,-4,-3,-4,75,-144,9,24.700001,48.200001,979.070007
16/06/2023,17:58:55.401,1,19,996,-4,-3,-5,75,-133,3,24.700001,48.200001,979.070007
16/06/2023,17:58:55.410,0,20,993,-4,-4,-4,75,-133,3,24.700001,48.200001,979.070007
16/06/2023,17:58:55.419,2,20,995,-4,-3,-4,88,-139,1,24.700001,48.200001,979.070007
16/06/2023,17:58:55.429,3,18,996,-5,-3,-5,91,-145,12,24.700001,48.200001,979.070007
16/06/2023,17:58:55.439,3,18,994,-5,-4,-6,87,-145,-1,24.700001,48.200001,979.070007
16/06/2023,17:58:55.448,5,19,994,-5,-4,-5,78,-126,3,24.700001,48.200001,979.070007
16/06/2023,17:58:55.458,3,19,993,-5,-4,-5,69,-129,13,24.700001,48.200001,979.070007
16/06/2023,17:58:55.467,1,19,993,-5,-3,-6,79,-154,-4,24.700001,48.200001,979.070007
16/06/2023,17:58:55.476,1,18,994,-4,-4,-5,85,-148,-6,24.700001,48.200001,979.070007
16/06/2023,17:58:55.486,0,20,993,-5,-4,-5,87,-156,-3,24.700001,48.200001,979.070007
16/06/2023,17:58:55.495,0,20,993,-4,-5,-5,73,-139,-4,24.700001,48.200001,979.070007
16/06/2023,17:58:55.504,1,19,993,-4,-5,-4,73,-139,-4,24.700001,48.200001,979.070007
16/06/2023,17:58:55.514,1,17,995,-5,-1,-5,81,-141,-3,24.700001,48.200001,979.070007
16/06/2023,17:58:55.523,0,19,997,-5,-2,-5,82,-144,4,24.700001,48.200001,979.070007
16/06/2023,17:58:55.532,2,20,996,-4,-5,-4,85,-153,9,24.700001,48.200001,979.070007
16/06/2023,17:58:55.542,1,18,998,-4,-5,-5,79,-142,0,24.700001,48.200001,979.070007
16/06/2023,17:58:55.551,0,17,999,-5,-4,-5,82,-154,12,24.700001,48.200001,979.070007
16/06/2023,17:58:55.561,1,20,996,-5,-6,-4,67,-151,18,24.700001,48.200001,979.070007
16/06/2023,17:58:55.570,0,21,995,-5,-5,-5,87,-162,21,24.700001,48.200001,979.070007
16/06/2023,17:58:55.579,0,19,995,-4,-5,-5,85,-154,0,24.700001,48.200001,979.070007
16/06/2023,17:58:55.588,1,20,995,-4,-5,-5,85,-154,0,24.700001,48.200001,979.070007
16/06/2023,17:58:55.597,1,20,994,-4,-4,-5,72,-153,-7,24.700001,48.200001,979.070007
16/06/2023,17:58:55.607,1,20,994,-5,-4,-5,78,-160,7,24.700001,48.200001,979.070007
16/06/2023,17:58:55.617,3,19,994,-5,-5,-5,72,-166,10,24.700001,48.200001,979.070007
16/06/2023,17:58:55.626,5,18,994,-4,-3,-4,70,-153,25,24.700001,48.200001,979.070007
16/06/2023,17:58:55.636,7,16,994,-5,-4,-5,87,-156,3,24.700001,48.200001,979.070007
16/06/2023,17:58:55.645,6,17,995,-5,-4,-5,87,-153,15,24.700001,48.200001,979.070007
16/06/2023,17:58:55.654,3,20,995,-5,-2,-5,87,-159,-3,24.700001,48.200001,979.070007
16/06/2023,17:58:55.664,1,17,995,-5,-2,-5,75,-162,-1,24.700001,48.200001,979.070007
16/06/2023,17:58:55.673,1,17,994,-4,-4,-4,102,-151,7,24.700001,48.200001,979.070007
16/06/2023,17:58:55.685,2,18,994,-4,-6,-4,102,-151,7,24.700001,48.200001,979.070007
16/06/2023,17:58:55.691,2,19,994,-5,-4,-5,90,-172,10,24.700001,48.200001,979.070007
16/06/2023,17:58:55.701,0,18,995,-6,-5,-5,75,-166,25,24.700001,48.200001,979.070007
16/06/2023,17:58:55.710,1,17,996,-5,-4,-6,76,-156,13,24.700001,48.200001,979.070007
16/06/2023,17:58:55.720,1,19,994,-4,-3,-6,94,-157,4,24.700001,48.200001,979.070007
16/06/2023,17:58:55.729,0,20,993,-5,-4,-5,99,-159,13,24.700001,48.200001,979.070007
16/06/2023,17:58:55.742,0,20,995,-5,-3,-4,79,-168,21,24.700001,48.200001,979.070007
16/06/2023,17:58:55.748,0,20,995,-5,-3,-5,84,-168,16,24.700001,48.200001,979.070007
16/06/2023,17:58:55.757,0,20,997,-5,-2,-4,94,-162,15,24.700001,48.200001,979.070007
16/06/2023,17:58:55.767,0,19,995,-4,-3,-5,94,-172,3,24.700001,48.200001,979.070007
16/06/2023,17:58:55.775,2,19,993,-5,-3,-5,94,-172,3,24.700001,48.200001,979.070007
16/06/2023,17:58:55.785,4,19,994,-5,-3,-4,91,-162,13,24.700001,48.200001,979.070007
16/06/2023,17:58:55.798,4,19,995,-5,-3,-5,90,-156,3,24.700001,48.200001,979.070007
16/06/2023,17:58:55.804,2,18,993,-4,-4,-5,96,-174,12,24.700001,48.200001,979.070007
16/06/2023,17:58:55.814,1,18,992,-4,-4,-4,91,-159,15,24.700001,48.200001,979.070007
16/06/2023,17:58:55.823,3,18,996,-4,-4,-4,94,-165,10,24.700001,48.200001,979.070007
16/06/2023,17:58:55.832,3,17,996,-4,-4,-4,84,-165,-1,24.700001,48.200001,979.070007
16/06/2023,17:58:55.842,2,17,993,-5,-5,-5,82,-159,3,24.700001,48.200001,979.070007
16/06/2023,17:58:55.851,0,16,994,-4,-4,-4,91,-157,24,24.700001,48.200001,979.070007
16/06/2023,17:58:55.860,2,18,996,-4,-5,-5,103,-157,7,24.700001,48.200001,979.070007
16/06/2023,17:58:55.869,2,20,995,-4,-4,-5,103,-157,7,24.700001,48.200001,979.070007
16/06/2023,17:58:55.878,0,19,993,-4,-4,-5,94,-171,12,24.700001,48.200001,979.070007
16/06/2023,17:58:55.888,1,21,994,-5,-2,-5,91,-163,12,24.700001,48.200001,979.070007
16/06/2023,17:58:55.898,3,18,995,-5,-3,-5,100,-168,0,24.700001,48.200001,979.070007
16/06/2023,17:58:55.907,3,17,994,-5,-4,-5,102,-171,21,24.700001,48.200001,979.070007
16/06/2023,17:58:55.917,3,17,992,-5,-5,-4,94,-160,13,24.700001,48.200001,979.070007
16/06/2023,17:58:55.926,2,17,994,-5,-5,-4,97,-166,10,24.700001,48.200001,979.070007
16/06/2023,17:58:55.935,4,19,994,-4,-3,-4,91,-162,10,24.700001,48.200001,979.070007
16/06/2023,17:58:55.945,5,19,994,-4,-4,-4,102,-171,25,24.700001,48.200001,979.070007
16/06/2023,17:58:55.954,1,19,993,-5,-3,-5,105,-166,6,24.700001,48.200001,979.070007
16/06/2023,17:58:55.963,0,20,994,-5,-4,-5,105,-166,6,24.700001,48.200001,979.070007
16/06/2023,17:58:55.972,3,18,994,-4,-5,-4,100,-168,9,24.700001,48.200001,979.070007
16/06/2023,17:58:55.982,4,18,992,-5,-4,-4,105,-172,22,24.700001,48.200001,979.070007
16/06/2023,17:58:55.992,2,19,994,-4,-5,-5,105,-165,13,24.700001,48.500000,979.159973
16/06/2023,17:58:56.001,3,18,995,-4,-4,-6,100,-186,16,24.700001,48.500000,979.159973
16/06/2023,17:58:56.010,4,18,993,-4,-6,-5,96,-142,19,24.700001,48.500000,979.159973
16/06/2023,17:58:56.020,2,18,994,-4,-6,-5,96,-183,6,24.700001,48.500000,979.159973
16/06/2023,17:58:56.029,1,16,993,-5,-4,-4,94,-162,22,24.700001,48.500000,979.159973
16/06/2023,17:58:56.038,3,18,994,-4,-5,-5,112,-177,21,24.700001,48.500000,979.159973
16/06/2023,17:58:56.047,3,20,995,-5,-5,-5,112,-177,21,24.700001,48.500000,979.159973
16/06/2023,17:58:56.057,0,19,994,-5,-4,-5,111,-187,18,24.700001,48.500000,979.159973
16/06/2023,17:58:56.066,1,19,993,-5,-4,-5,100,-171,7,24.700001,48.500000,979.159973
16/06/2023,17:58:56.076,3,19,994,-5,-4,-4,109,-169,10,24.700001,48.500000,979.159973
16/06/2023,17:58:56.085,3,18,994,-4,-5,-4,115,-166,9,24.700001,48.500000,979.159973
16/06/2023,17:58:56.095,3,18,994,-5,-4,-5,115,-166,19,24.700001,48.500000,979.159973
16/06/2023,17:58:56.104,1,18,994,-5,-4,-5,111,-159,6,24.700001,48.500000,979.159973
16/06/2023,17:58:56.113,3,17,994,-4,-4,-5,109,-169,-4,24.700001,48.500000,979.159973
16/06/2023,17:58:56.123,4,16,992,-5,-4,-5,111,-163,24,24.700001,48.500000,979.159973
16/06/2023,17:58:56.132,2,17,993,-4,-5,-4,105,-169,10,24.700001,48.500000,979.159973
16/06/2023,17:58:56.141,2,18,994,-4,-3,-4,105,-169,10,24.700001,48.500000,979.159973
16/06/2023,17:58:56.150,1,16,996,-5,-2,-4,124,-172,19,24.700001,48.500000,979.159973
16/06/2023,17:58:56.160,0,14,995,-4,-3,-4,114,-174,13,24.700001,48.500000,979.159973
16/06/2023,17:58:56.170,0,18,995,-5,-3,-4,105,-171,6,24.700001,48.500000,979.159973
16/06/2023,17:58:56.179,0,20,997,-5,-2,-5,109,-177,24,24.700001,48.500000,979.159973
16/06/2023,17:58:56.191,3,19,998,-5,-4,-4,121,-160,19,24.700001,48.500000,979.159973
16/06/2023,17:58:56.198,3,18,997,-4,-2,-4,129,-151,9,24.700001,48.500000,979.159973
16/06/2023,17:58:56.207,2,19,994,-4,-3,-4,126,-171,15,24.700001,48.500000,979.159973
16/06/2023,17:58:56.216,4,19,994,-4,-4,-5,123,-160,16,24.700001,48.500000,979.159973
16/06/2023,17:58:56.226,3,18,997,-5,-4,-4,111,-162,13,24.700001,48.500000,979.159973
16/06/2023,17:58:56.235,3,18,994,-4,-5,-5,111,-162,13,24.700001,48.500000,979.159973
16/06/2023,17:58:56.247,2,18,992,-4,-4,-6,114,-165,9,24.700001,48.500000,979.159973
16/06/2023,17:58:56.254,1,17,992,-5,-3,-5,120,-162,42,24.700001,48.500000,979.159973
16/06/2023,17:58:56.263,3,17,993,-5,-4,-5,120,-162,42,24.700001,48.500000,979.159973
16/06/2023,17:58:56.273,2,17,995,-5,-4,-5,138,-171,15,24.700001,48.500000,979.159973
16/06/2023,17:58:56.282,2,19,995,-5,-3,-5,132,-172,19,24.700001,48.500000,979.159973
16/06/2023,17:58:56.291,3,21,995,-5,-3,-5,123,-162,15,24.700001,48.500000,979.159973
16/06/2023,17:58:56.304,3,17,993,-5,-3,-5,123,-163,6,24.700001,48.500000,979.159973
16/06/2023,17:58:56.310,2,15,993,-4,-4,-6,117,-154,16,24.700001,48.500000,979.159973
16/06/2023,17:58:56.319,2,18,996,-4,-4,-5,124,-147,13,24.700001,48.500000,979.159973
16/06/2023,17:58:56.328,0,20,996,-4,-4,-5,124,-147,13,24.700001,48.500000,979.159973
16/06/2023,17:58:56.338,0,21,995,-5,-5,-5,124,-175,15,24.700001,48.500000,979.159973
16/06/2023,17:58:56.348,0,21,995,-5,-5,-5,123,-160,33,24.700001,48.500000,979.159973
16/06/2023,17:58:56.357,3,20,994,-5,-4,-5,123,-163,7,24.700001,48.500000,979.159973
16/06/2023,17:58:56.366,3,21,994,-5,-4,-5,121,-178,31,24.700001,48.500000,979.159973
16/06/2023,17:58:56.376,1,20,993,-5,-4,-6,97,-169,16,24.700001,48.500000,979.159973
16/06/2023,17:58:56.385,3,20,994,-5,-4,-5,115,-162,19,24.700001,48.500000,979.159973
16/06/2023,17:58:56.394,4,21,994,-6,-5,-4,117,-159,12,24.700001,48.500000,979.159973
16/06/2023,17:58:56.404,1,17,994,-5,-4,-4,115,-144,27,24.700001,48.500000,979.159973
16/06/2023,17:58:56.413,2,18,994,-4,-4,-5,121,-168,36,24.700001,48.500000,979.159973
16/06/2023,17:58:56.422,2,18,994,-5,-3,-5,121,-168,36,24.700001,48.500000,979.159973
16/06/2023,17:58:56.431,3,19,993,-5,-3,-5,129,-165,9,24.700001,48.500000,979.159973
16/06/2023,17:58:56.441,0,18,993,-6,-4,-5,129,-177,1,24.700001,48.500000,979.159973
16/06/2023,17:58:56.451,1,15,993,-5,-4,-4,120,-163,25,24.700001,48.500000,979.159973
16/06/2023,17:58:56.460,1,17,994,-5,-4,-5,123,-154,16,24.700001,48.500000,979.159973
16/06/2023,17:58:56.469,1,21,996,-5,-3,-6,123,-144,43,24.700001,48.500000,979.159973
16/06/2023,17:58:56.479,2,20,996,-5,-5,-5,129,-148,30,24.700001,48.500000,979.159973
16/06/2023,17:58:56.488,2,18,995,-5,-5,-4,120,-150,40,24.700001,48.500000,979.159973
16/06/2023,17:58:56.497,3,17,995,-5,-5,-4,117,-147,13,24.700001,48.500000,979.159973
16/06/2023,17:58:56.507,3,20,994,-5,-5,-5,115,-169,13,24.700001,48.500000,979.159973
16/06/2023,17:58:56.516,0,19,994,-5,-5,-5,115,-169,13,24.700001,48.500000,979.159973
16/06/2023,17:58:56.526,0,18,993,-5,-2,-6,127,-172,19,24.700001,48.500000,979.159973
16/06/2023,17:58:56.535,2,20,994,-4,-3,-4,139,-159,12,24.700001,48.500000,979.159973
16/06/2023,17:58:56.544,3,19,995,-5,-4,-4,141,-174,31,24.700001,48.500000,979.159973
16/06/2023,17:58:56.554,4,20,993,-5,-4,-5,132,-165,24,24.700001,48.500000,979.159973
16/06/2023,17:58:56.563,3,21,994,-5,-4,-5,135,-159,40,24.700001,48.500000,979.159973
16/06/2023,17:58:56.572,2,19,995,-5,-4,-5,126,-148,30,24.700001,48.500000,979.159973
16/06/2023,17:58:56.582,2,18,992,-4,-4,-5,123,-154,19,24.700001,48.500000,979.159973
16/06/2023,17:58:56.591,2,19,993,-5,-4,-5,114,-156,30,24.700001,48.500000,979.159973
16/06/2023,17:58:56.600,3,19,994,-4,-5,-4,114,-156,30,24.700001,48.500000,979.159973
16/06/2023,17:58:56.609,3,18,996,-4,-4,-4,132,-145,27,24.700001,48.500000,979.159973
16/06/2023,17:58:56.619,3,18,994,-5,-5,-5,129,-150,33,24.700001,48.500000,979.159973
16/06/2023,17:58:56.629,1,18,992,-5,-5,-4,123,-154,15,24.700001,48.500000,979.159973
16/06/2023,17:58:56.638,1,20,993,-5,-2,-5,124,-148,57,24.700001,48.500000,979.159973
16/06/2023,17:58:56.647,1,20,993,-5,-3,-6,129,-145,45,24.700001,48.500000,979.159973
16/06/2023,17:58:56.657,1,17,994,-5,-4,-5,136,-153,27,24.700001,48.500000,979.159973
16/06/2023,17:58:56.666,2,17,996,-4,-3,-4,132,-145,34,24.700001,48.500000,979.159973
16/06/2023,17:58:56.675,1,18,995,-5,-4,-4,123,-154,22,24.700001,48.500000,979.159973
16/06/2023,17:58:56.685,1,18,994,-5,-4,-5,141,-150,13,24.700001,48.500000,979.159973
16/06/2023,17:58:56.694,2,20,994,-5,-5,-5,141,-150,13,24.700001,48.500000,979.159973
16/06/2023,17:58:56.703,3,20,995,-5,-4,-5,124,-147,27,24.700001,48.500000,979.159973
16/06/2023,17:58:56.713,2,20,995,-5,-4,-5,133,-150,40,24.700001,48.500000,979.159973
16/06/2023,17:58:56.722,2,21,993,-4,-4,-5,123,-159,48,24.700001,48.500000,979.159973
16/06/2023,17:58:56.732,4,19,992,-4,-4,-5,121,-151,39,24.700001,48.500000,979.159973
16/06/2023,17:58:56.741,4,18,994,-4,-4,-5,132,-157,33,24.700001,48.500000,979.159973
16/06/2023,17:58:56.750,1,17,995,-5,-4,-5,130,-139,39,24.700001,48.500000,979.159973
16/06/2023,17:58:56.760,0,19,994,-5,-4,-4,132,-147,55,24.700001,48.500000,979.159973
16/06/2023,17:58:56.769,1,20,995,-4,-4,-4,142,-139,34,24.700001,48.500000,979.159973
16/06/2023,17:58:56.779,1,20,994,-5,-3,-5,120,-150,27,24.700001,48.500000,979.159973
16/06/2023,17:58:56.787,1,20,994,-5,-3,-5,120,-150,27,24.700001,48.500000,979.159973
16/06/2023,17:58:56.797,3,19,993,-5,-4,-4,126,-150,54,24.700001,48.500000,979.159973
16/06/2023,17:58:56.807,3,17,992,-5,-5,-5,124,-151,58,24.700001,48.500000,979.159973
16/06/2023,17:58:56.816,2,17,991,-5,-5,-5,118,-153,39,24.700001,48.500000,979.159973
16/06/2023,17:58:56.825,3,18,990,-4,-4,-5,117,-144,40,24.700001,48.500000,979.159973
16/06/2023,17:58:56.835,5,18,990,-4,-6,-5,135,-154,33,24.700001,48.500000,979.159973
16/06/2023,17:58:56.844,5,17,993,-5,-5,-5,130,-139,45,24.700001,48.500000,979.159973
16/06/2023,17:58:56.853,2,18,994,-4,-3,-5,120,-151,28,24.700001,48.500000,979.159973
16/06/2023,17:58:56.863,2,17,993,-4,-3,-4,106,-145,52,24.700001,48.500000,979.159973
16/06/2023,17:58:56.872,3,16,993,-5,-4,-4,106,-145,52,24.700001,48.500000,979.159973
16/06/2023,17:58:56.881,2,19,993,-6,-3,-5,123,-132,28,24.700001,48.500000,979.159973
16/06/2023,17:58:56.891,3,19,995,-5,-4,-4,129,-157,48,24.700001,48.500000,979.159973
16/06/2023,17:58:56.900,3,18,996,-5,-3,-5,114,-160,34,24.700001,48.500000,979.159973
16/06/2023,17:58:56.910,3,20,994,-4,-3,-5,109,-138,64,24.700001,48.500000,979.159973
16/06/2023,17:58:56.928,4,20,994,-5,-3,-5,118,-139,69,24.700001,48.500000,979.159973
16/06/2023,17:58:56.938,5,19,993,-5,-3,-4,129,-135,30,24.700001,48.500000,979.159973
16/06/2023,17:58:56.947,3,18,994,-5,-4,-4,118,-150,48,24.700001,48.500000,979.159973
16/06/2023,17:58:56.957,1,19,992,-4,-4,-5,118,-159,40,24.700001,48.500000,979.159973
16/06/2023,17:58:56.965,0,20,993,-5,-4,-5,118,-159,40,24.700001,48.500000,979.159973
16/06/2023,17:58:56.975,0,21,995,-5,-3,-5,139,-148,48,24.700001,48.500000,979.159973
16/06/2023,17:58:56.985,0,19,993,-5,-3,-5,120,-148,46,24.700001,48.500000,979.159973
16/06/2023,17:58:56.994,-2,19,993,-5,-4,-5,123,-147,58,24.700001,48.500000,979.159973
16/06/2023,17:58:57.003,-1,21,994,-5,-4,-4,129,-129,37,24.700001,48.500000,979.159973
16/06/2023,17:58:57.013,2,20,993,-5,-4,-5,124,-139,40,24.700001,48.500000,979.159973
16/06/2023,17:58:57.022,4,20,993,-5,-4,-5,114,-147,54,24.700001,48.500000,979.159973
16/06/2023,17:58:57.032,3,20,994,-4,-4,-5,114,-147,54,25.000000,47.900002,979.159973
16/06/2023,17:58:57.041,2,20,994,-5,-4,-6,127,-154,43,25.000000,47.900002,979.150024
16/06/2023,17:58:57.050,2,20,993,-5,-4,-6,127,-154,43,25.000000,47.900002,979.150024
16/06/2023,17:58:57.060,3,20,995,-5,-4,-6,117,-150,57,25.000000,47.900002,979.150024
16/06/2023,17:58:57.069,2,18,995,-5,-4,-4,120,-145,51,25.000000,47.900002,979.150024
16/06/2023,17:58:57.078,3,16,995,-5,-3,-5,112,-153,54,25.000000,47.900002,979.150024
16/06/2023,17:58:57.088,4,15,994,-4,-4,-5,124,-148,54,25.000000,47.900002,979.150024
16/06/2023,17:58:57.097,2,15,992,-4,-4,-5,126,-148,51,25.000000,47.900002,979.150024
16/06/2023,17:58:57.106,2,17,992,-5,-4,-5,127,-145,48,25.000000,47.900002,979.150024
16/06/2023,17:58:57.116,1,18,995,-5,-4,-5,126,-148,31,25.000000,47.900002,979.150024
16/06/2023,17:58:57.125,0,20,996,-5,-4,-4,129,-150,43,25.000000,47.900002,979.150024
16/06/2023,17:58:57.134,0,20,996,-5,-4,-5,129,-150,43,25.000000,47.900002,979.150024
16/06/2023,17:58:57.143,0,22,995,-5,-5,-4,129,-135,27,25.000000,47.900002,979.150024
16/06/2023,17:58:57.153,-2,22,996,-4,-4,-5,123,-139,43,25.000000,47.900002,979.150024
16/06/2023,17:58:57.163,0,18,995,-5,-3,-4,121,-162,30,25.000000,47.900002,979.150024
16/06/2023,17:58:57.172,3,16,993,-5,-3,-5,126,-133,30,25.000000,47.900002,979.150024
16/06/2023,17:58:57.181,0,19,994,-5,-4,-5,124,-145,43,25.000000,47.900002,979.150024
16/06/2023,17:58:57.191,0,19,995,-5,-5,-5,133,-141,67,25.000000,47.900002,979.150024
16/06/2023,17:58:57.200,2,18,995,-5,-5,-4,115,-156,30,25.000000,47.900002,979.150024
16/06/2023,17:58:57.209,0,19,995,-5,-2,-6,117,-133,42,25.000000,47.900002,979.150024
16/06/2023,17:58:57.218,1,19,995,-5,-3,-5,117,-133,42,25.000000,47.900002,979.150024
16/06/2023,17:58:57.228,3,19,995,-5,-4,-6,112,-150,54,25.000000,47.900002,979.150024
16/06/2023,17:58:57.238,1,18,994,-5,-4,-5,123,-144,49,25.000000,47.900002,979.150024
16/06/2023,17:58:57.247,0,16,995,-5,-4,-6,124,-151,67,25.000000,47.900002,979.150024
16/06/2023,17:58:57.256,0,18,996,-4,-4,-5,120,-154,57,25.000000,47.900002,979.150024
16/06/2023,17:58:57.266,0,19,994,-4,-3,-5,114,-138,46,25.000000,47.900002,979.150024
16/06/2023,17:58:57.275,0,20,994,-4,-3,-5,132,-144,24,25.000000,47.900002,979.150024
16/06/2023,17:58:57.284,2,19,993,-5,-3,-5,103,-171,33,25.000000,47.900002,979.150024
16/06/2023,17:58:57.294,3,18,992,-5,-4,-4,123,-142,46,25.000000,47.900002,979.150024
16/06/2023,17:58:57.303,3,18,994,-5,-3,-4,129,-151,34,25.000000,47.900002,979.150024
16/06/2023,17:58:57.312,1,18,996,-5,-3,-5,129,-151,34,25.000000,47.900002,979.150024
16/06/2023,17:58:57.322,1,18,995,-4,-3,-4,111,-135,36,25.000000,47.900002,979.150024
16/06/2023,17:58:57.331,3,18,994,-4,-3,-4,126,-151,43,25.000000,47.900002,979.150024
16/06/2023,17:58:57.341,2,20,994,-4,-3,-4,106,-156,39,25.000000,47.900002,979.150024
16/06/2023,17:58:57.350,3,20,994,-5,-3,-5,123,-138,43,25.000000,47.900002,979.150024
16/06/2023,17:58:57.359,2,18,995,-4,-5,-5,120,-145,54,25.000000,47.900002,979.150024
16/06/2023,17:58:57.369,1,18,994,-5,-4,-5,118,-142,39,25.000000,47.900002,979.150024
16/06/2023,17:58:57.378,4,17,994,-5,-5,-4,102,-145,57,25.000000,47.900002,979.150024
16/06/2023,17:58:57.388,4,19,996,-5,-5,-4,126,-141,58,25.000000,47.900002,979.150024
16/06/2023,17:58:57.396,5,21,996,-4,-4,-4,126,-141,58,25.000000,47.900002,979.150024
16/06/2023,17:58:57.406,3,20,994,-5,-4,-5,114,-133,39,25.000000,47.900002,979.150024
16/06/2023,17:58:57.416,1,17,993,-5,-4,-5,141,-138,43,25.000000,47.900002,979.150024
16/06/2023,17:58:57.428,1,16,995,-5,-5,-4,115,-139,55,25.000000,47.900002,979.150024
16/06/2023,17:58:57.434,0,18,995,-5,-5,-5,126,-136,75,25.000000,47.900002,979.150024
16/06/2023,17:58:57.444,2,19,996,-5,-3,-5,126,-130,52,25.000000,47.900002,979.150024
16/06/2023,17:58:57.453,0,20,995,-5,-4,-4,129,-139,39,25.000000,47.900002,979.150024
16/06/2023,17:58:57.462,2,21,994,-4,-4,-4,120,-141,55,25.000000,47.900002,979.150024
16/06/2023,17:58:57.472,3,20,995,-4,-4,-4,120,-148,37,25.000000,47.900002,979.150024
16/06/2023,17:58:57.484,3,20,995,-4,-4,-6,108,-126,45,25.000000,47.900002,979.150024
16/06/2023,17:58:57.490,2,20,995,-4,-4,-5,108,-126,45,25.000000,47.900002,979.150024
16/06/2023,17:58:57.499,0,16,994,-4,-4,-5,120,-120,61,25.000000,47.900002,979.150024
16/06/2023,17:58:57.509,0,18,993,-4,-4,-4,117,-156,54,25.000000,47.900002,979.150024
16/06/2023,17:58:57.519,0,20,993,-4,-3,-4,126,-145,37,25.000000,47.900002,979.150024
16/06/2023,17:58:57.528,0,18,994,-5,-3,-4,120,-147,46,25.000000,47.900002,979.150024
16/06/2023,17:58:57.541,0,17,995,-5,-6,-5,109,-151,45,25.000000,47.900002,979.150024
16/06/2023,17:58:57.547,0,18,995,-4,-2,-6,121,-138,36,25.000000,47.900002,979.150024
16/06/2023,17:58:57.556,0,19,993,-4,-3,-6,117,-145,43,25.000000,47.900002,979.150024
16/06/2023,17:58:57.566,2,19,993,-5,-4,-6,121,-148,69,25.000000,47.900002,979.150024
16/06/2023,17:58:57.575,3,17,993,-5,-4,-6,118,-148,54,25.000000,47.900002,979.150024
16/06/2023,17:58:57.584,1,18,994,-4,-2,-5,118,-148,54,25.000000,47.900002,979.150024
16/06/2023,17:58:57.594,0,19,995,-4,-6,-4,102,-139,54,25.000000,47.900002,979.150024
16/06/2023,17:58:57.603,2,18,996,-4,-4,-6,124,-139,49,25.000000,47.900002,979.150024
16/06/2023,17:58:57.612,4,18,996,-4,-3,-5,108,-156,48,25.000000,47.900002,979.150024
16/06/2023,17:58:57.622,4,17,995,-4,-4,-5,117,-154,46,25.000000,47.900002,979.150024
16/06/2023,17:58:57.631,4,19,994,-4,-4,-5,112,-160,49,25.000000,47.900002,979.150024
16/06/2023,17:58:57.640,4,18,993,-5,-4,-5,120,-121,48,25.000000,47.900002,979.150024
16/06/2023,17:58:57.650,3,16,993,-4,-5,-6,109,-145,43,25.000000,47.900002,979.150024
16/06/2023,17:58:57.659,0,18,994,-5,-2,-5,126,-147,49,25.000000,47.900002,979.150024
16/06/2023,17:58:57.668,0,20,997,-4,-3,-4,126,-147,49,25.000000,47.900002,979.150024
16/06/2023,17:58:57.677,0,21,1000,-4,-4,-5,126,-150,43,25.000000,47.900002,979.150024
16/06/2023,17:58:57.687,0,19,999,-4,-5,-5,118,-144,34,25.000000,47.900002,979.150024
16/06/2023,17:58:57.697,4,18,991,-5,-5,-4,130,-139,42,25.000000,47.900002,979.150024
16/06/2023,17:58:57.706,5,21,989,-4,-5,-5,115,-141,34,25.000000,47.900002,979.150024
16/06/2023,17:58:57.715,3,21,994,-4,-4,-5,100,-126,61,25.000000,47.900002,979.150024
16/06/2023,17:58:57.725,3,19,992,-4,-3,-4,109,-141,39,25.000000,47.900002,979.150024
16/06/2023,17:58:57.734,4,18,991,-6,-3,-5,135,-144,49,25.000000,47.900002,979.150024
16/06/2023,17:58:57.744,2,17,995,-6,-3,-5,118,-138,34,25.000000,47.900002,979.150024
16/06/2023,17:58:57.753,1,18,996,-5,-4,-5,112,-132,28,25.000000,47.900002,979.150024
16/06/2023,17:58:57.762,2,19,997,-4,-4,-5,112,-132,28,25.000000,47.900002,979.150024
16/06/2023,17:58:57.771,2,17,996,-4,-4,-4,112,-139,30,25.000000,47.900002,979.150024
16/06/2023,17:58:57.781,2,17,994,-4,-4,-4,117,-141,42,25.000000,47.900002,979.150024
16/06/2023,17:58:57.790,3,19,992,-4,-5,-5,111,-132,49,25.000000,47.900002,979.150024
16/06/2023,17:58:57.800,4,20,993,-5,-3,-5,117,-153,46,25.000000,47.900002,979.150024
16/06/2023,17:58:57.809,2,19,996,-4,-4,-4,105,-145,40,25.000000,47.900002,979.150024
16/06/2023,17:58:57.818,3,17,996,-5,-5,-5,120,-147,48,25.000000,47.900002,979.150024
16/06/2023,17:58:57.828,3,17,996,-3,-5,-5,126,-154,37,25.000000,47.900002,979.150024
16/06/2023,17:58:57.837,3,19,995,-4,-6,-5,120,-150,46,25.000000,47.900002,979.150024
16/06/2023,17:58:57.847,0,21,996,-4,-5,-6,115,-150,40,25.000000,47.900002,979.150024
16/06/2023,17:58:57.855,0,20,994,-4,-4,-5,115,-150,40,25.000000,47.900002,979.150024
16/06/2023,17:58:57.865,1,19,994,-5,-4,-4,111,-150,54,25.000000,47.900002,979.150024
16/06/2023,17:58:57.875,0,19,994,-5,-3,-5,112,-132,78,25.000000,47.900002,979.150024
16/06/2023,17:58:57.884,0,19,994,-5,-5,-4,112,-132,78,25.000000,47.900002,979.150024
16/06/2023,17:58:57.893,1,19,994,-6,-6,-6,138,-162,34,25.000000,47.900002,979.150024
16/06/2023,17:58:57.903,1,20,994,-5,-4,-5,124,-148,46,25.000000,47.900002,979.150024
16/06/2023,17:58:57.912,2,21,996,-5,-4,-5,121,-157,58,25.000000,47.900002,979.150024
16/06/2023,17:58:57.922,3,19,995,-4,-4,-4,126,-135,43,25.000000,47.900002,979.150024
16/06/2023,17:58:57.931,4,19,993,-5,0,-6,118,-139,52,25.000000,47.900002,979.150024
16/06/2023,17:58:57.940,5,18,993,-5,-2,-6,129,-132,45,25.000000,47.900002,979.150024
16/06/2023,17:58:57.949,5,18,994,-5,-3,-5,129,-132,45,25.000000,47.900002,979.150024
16/06/2023,17:58:57.958,4,19,994,-5,-4,-5,129,-145,40,25.000000,47.900002,979.150024
16/06/2023,17:58:57.968,3,17,995,-5,-4,-4,133,-138,46,25.000000,47.900002,979.150024
16/06/2023,17:58:57.978,2,18,994,-5,-4,-5,124,-147,40,25.000000,47.900002,979.150024
16/06/2023,17:58:57.987,0,18,996,-6,-4,-5,111,-157,52,25.000000,47.900002,979.150024
16/06/2023,17:58:57.996,-1,17,997,-4,-4,-4,129,-148,51,25.000000,47.900002,979.150024
16/06/2023,17:58:58.006,0,16,995,-4,-4,-5,123,-147,45,25.000000,47.900002,979.150024
16/06/2023,17:58:58.015,2,20,997,-4,-3,-5,111,-147,34,25.000000,47.900002,979.150024
16/06/2023,17:58:58.025,1,21,995,-4,-4,-6,130,-135,42,25.000000,47.900002,979.150024
16/06/2023,17:58:58.034,1,18,993,-5,-4,-5,115,-141,49,25.000000,47.900002,979.150024
16/06/2023,17:58:58.043,4,18,994,-5,-4,-5,115,-141,49,25.000000,47.900002,979.150024
16/06/2023,17:58:58.052,3,19,991,-5,-4,-5,111,-151,60,25.000000,47.900002,979.150024
16/06/2023,17:58:58.062,1,20,993,-4,-4,-5,117,-162,37,25.000000,47.900002,979.150024
16/06/2023,17:58:58.071,1,19,995,-5,-3,-5,117,-139,33,25.000000,47.900002,979.150024
16/06/2023,17:58:58.081,2,17,995,-5,-4,-5,118,-151,63,24.700001,47.900002,979.080017
16/06/2023,17:58:58.090,2,18,994,-4,-4,-5,127,-148,43,24.700001,47.900002,979.080017
16/06/2023,17:58:58.100,0,20,994,-4,-4,-5,112,-138,49,24.700001,47.900002,979.080017
16/06/2023,17:58:58.109,0,19,995,-5,-3,-5,126,-154,46,24.700001,47.900002,979.080017
16/06/2023,17:58:58.118,0,18,996,-5,-3,-4,129,-165,34,24.700001,47.900002,979.080017
16/06/2023,17:58:58.127,1,20,996,-5,-3,-5,129,-165,34,24.700001,47.900002,979.080017
16/06/2023,17:58:58.136,2,20,995,-4,-3,-4,117,-150,39,24.700001,47.900002,979.080017
16/06/2023,17:58:58.146,2,19,996,-3,-4,-4,100,-165,40,24.700001,47.900002,979.080017
16/06/2023,17:58:58.156,3,20,995,-5,-4,-6,123,-141,31,24.700001,47.900002,979.080017
16/06/2023,17:58:58.165,3,19,995,-5,-5,-6,109,-150,42,24.700001,47.900002,979.080017
16/06/2023,17:58:58.174,3,19,995,-5,-4,-5,108,-129,33,24.700001,47.900002,979.080017
16/06/2023,17:58:58.184,2,17,996,-5,-5,-4,123,-151,46,24.700001,47.900002,979.080017
16/06/2023,17:58:58.193,2,16,998,-4,-5,-4,120,-145,25,24.700001,47.900002,979.080017
16/06/2023,17:58:58.203,3,17,994,-5,-4,-4,124,-148,45,24.700001,47.900002,979.080017
16/06/2023,17:58:58.212,3,19,992,-4,-4,-5,111,-156,36,24.700001,47.900002,979.080017
16/06/2023,17:58:58.221,1,19,995,-4,-5,-4,111,-156,36,24.700001,47.900002,979.080017
16/06/2023,17:58:58.230,2,19,994,-5,-3,-4,126,-145,39,24.700001,47.900002,979.080017
16/06/2023,17:58:58.240,2,19,993,-6,-5,-5,127,-153,43,24.700001,47.900002,979.080017
16/06/2023,17:58:58.249,0,16,996,-5,-5,-5,123,-141,45,24.700001,47.900002,979.080017
16/06/2023,17:58:58.259,0,16,994,-5,-4,-5,127,-132,42,24.700001,47.900002,979.080017
16/06/2023,17:58:58.268,3,17,992,-5,-4,-5,117,-138,61,24.700001,47.900002,979.080017
16/06/2023,17:58:58.278,3,17,992,-4,-4,-4,109,-171,30,24.700001,47.900002,979.080017
16/06/2023,17:58:58.287,1,17,991,-5,-4,-5,105,-139,49,24.700001,47.900002,979.080017
16/06/2023,17:58:58.296,2,19,992,-5,-5,-5,120,-129,42,24.700001,47.900002,979.080017
16/06/2023,17:58:58.306,1,18,994,-6,-4,-6,123,-133,34,24.700001,47.900002,979.080017
16/06/2023,17:58:58.314,0,17,994,-4,-4,-5,123,-133,34,24.700001,47.900002,979.080017
16/06/2023,17:58:58.324,2,18,994,-5,-2,-6,99,-142,37,24.700001,47.900002,979.080017
16/06/2023,17:58:58.334,2,15,993,-5,-3,-5,117,-154,34,24.700001,47.900002,979.080017
16/06/2023,17:58:58.343,1,17,992,-5,-5,-4,141,-136,25,24.700001,47.900002,979.080017
16/06/2023,17:58:58.352,1,18,993,-5,-4,-6,141,-139,43,24.700001,47.900002,979.080017
16/06/2023,17:58:58.362,2,17,993,-4,-4,-6,109,-150,43,24.700001,47.900002,979.080017
16/06/2023,17:58:58.371,1,18,993,-5,-4,-5,130,-136,52,24.700001,47.900002,979.080017
16/06/2023,17:58:58.381,2,19,994,-4,-3,-5,114,-156,40,24.700001,47.900002,979.080017
16/06/2023,17:58:58.390,3,20,994,-6,-4,-5,126,-144,34,24.700001,47.900002,979.080017
16/06/2023,17:58:58.399,0,19,994,-4,-4,-5,126,-144,34,24.700001,47.900002,979.080017
16/06/2023,17:58:58.408,0,19,995,-4,-4,-6,118,-141,51,24.700001,47.900002,979.080017
16/06/2023,17:58:58.418,3,19,993,-4,-4,-5,127,-145,33,24.700001,47.900002,979.080017
16/06/2023,17:58:58.427,3,20,995,-4,-4,-6,132,-141,45,24.700001,47.900002,979.080017
16/06/2023,17:58:58.437,3,20,996,-4,-4,-6,126,-142,49,24.700001,47.900002,979.080017
16/06/2023,17:58:58.446,4,19,994,-4,-4,-6,117,-157,36,24.700001,47.900002,979.080017
16/06/2023,17:58:58.456,3,18,994,-5,-4,-5,130,-142,39,24.700001,47.900002,979.080017
16/06/2023,17:58:58.465,1,19,994,-4,-4,-5,123,-160,33,24.700001,47.900002,979.080017
16/06/2023,17:58:58.474,0,17,992,-5,-5,-4,130,-150,49,24.700001,47.900002,979.080017
16/06/2023,17:58:58.484,1,19,995,-5,-4,-4,136,-132,31,24.700001,47.900002,979.080017
16/06/2023,17:58:58.492,3,22,996,-5,-3,-5,136,-132,31,24.700001,47.900002,979.080017
16/06/2023,17:58:58.502,3,22,996,-5,-5,-5,115,-154,49,24.700001,47.900002,979.080017
16/06/2023,17:58:58.512,3,20,995,-4,-4,-4,130,-150,46,24.700001,47.900002,979.080017
16/06/2023,17:58:58.521,3,20,995,-5,-5,-4,136,-138,45,24.700001,47.900002,979.080017
16/06/2023,17:58:58.531,1,20,995,-5,-4,-5,114,-136,27,24.700001,47.900002,979.080017
16/06/2023,17:58:58.540,1,17,994,-4,-5,-4,126,-148,31,24.700001,47.900002,979.080017
16/06/2023,17:58:58.549,1,15,995,-5,-4,-5,132,-148,42,24.700001,47.900002,979.080017
16/06/2023,17:58:58.559,0,16,996,-6,-5,-5,121,-138,34,24.700001,47.900002,979.080017
16/06/2023,17:58:58.568,2,18,995,-6,-5,-4,130,-135,37,24.700001,47.900002,979.080017
16/06/2023,17:58:58.577,4,15,991,-6,-3,-5,126,-145,30,24.700001,47.900002,979.080017
16/06/2023,17:58:58.586,2,17,992,-4,-4,-4,126,-145,30,24.700001,47.900002,979.080017
16/06/2023,17:58:58.595,1,19,995,-4,-4,-5,123,-150,49,24.700001,47.900002,979.080017
16/06/2023,17:58:58.605,1,19,993,-5,-5,-4,112,-151,24,24.700001,47.900002,979.080017
16/06/2023,17:58:58.615,1,18,994,-5,-3,-5,126,-148,37,24.700001,47.900002,979.080017
16/06/2023,17:58:58.624,2,16,995,-4,-4,-6,114,-145,37,24.700001,47.900002,979.080017
16/06/2023,17:58:58.634,3,17,995,-5,-3,-5,123,-142,43,24.700001,47.900002,979.080017
16/06/2023,17:58:58.643,4,17,995,-5,-4,-5,129,-156,45,24.700001,47.900002,979.080017
16/06/2023,17:58:58.655,2,17,995,-5,-4,-5,133,-147,39,24.700001,47.900002,979.080017
16/06/2023,17:58:58.662,1,17,996,-5,-2,-5,120,-148,57,24.700001,47.900002,979.080017
16/06/2023,17:58:58.670,0,17,995,-4,-3,-6,120,-148,57,24.700001,47.900002,979.080017
16/06/2023,17:58:58.680,2,16,994,-4,-5,-5,129,-136,43,24.700001,47.900002,979.080017
16/06/2023,17:58:58.690,5,15,994,-5,-5,-5,129,-135,33,24.700001,47.900002,979.080017
16/06/2023,17:58:58.699,3,18,993,-5,-5,-4,127,-144,31,24.700001,47.900002,979.080017
16/06/2023,17:58:58.712,3,20,995,-4,-5,-4,112,-168,48,24.700001,47.900002,979.080017
16/06/2023,17:58:58.718,3,20,997,-5,-3,-5,130,-154,33,24.700001,47.900002,979.080017
16/06/2023,17:58:58.727,2,19,996,-5,-3,-5,106,-144,37,24.700001,47.900002,979.080017
16/06/2023,17:58:58.737,2,19,994,-5,-3,-5,111,-154,34,24.700001,47.900002,979.080017
16/06/2023,17:58:58.746,2,20,994,-4,-4,-4,126,-160,52,24.700001,47.900002,979.080017
16/06/2023,17:58:58.755,3,18,995,-5,-4,-5,127,-169,21,24.700001,47.900002,979.080017
16/06/2023,17:58:58.767,3,18,993,-4,-4,-5,127,-169,21,24.700001,47.900002,979.080017
16/06/2023,17:58:58.774,2,18,992,-5,-3,-5,121,-154,25,24.700001,47.900002,979.080017
16/06/2023,17:58:58.783,4,16,993,-5,-3,-4,123,-159,21,24.700001,47.900002,979.080017
16/06/2023,17:58:58.793,4,16,995,-5,-3,-4,136,-129,55,24.700001,47.900002,979.080017
16/06/2023,17:58:58.802,0,17,996,-5,-4,-4,120,-147,36,24.700001,47.900002,979.080017
16/06/2023,17:58:58.812,0,18,996,-4,-5,-5,132,-145,24,24.700001,47.900002,979.080017
16/06/2023,17:58:58.821,4,17,994,-4,-5,-5,127,-144,37,24.700001,47.900002,979.080017
16/06/2023,17:58:58.830,2,18,994,-5,-5,-4,147,-156,34,24.700001,47.900002,979.080017
16/06/2023,17:58:58.840,0,19,995,-5,-4,-4,130,-153,42,24.700001,47.900002,979.080017
16/06/2023,17:58:58.848,0,19,995,-6,-3,-5,130,-153,42,24.700001,47.900002,979.080017
16/06/2023,17:58:58.858,0,18,994,-6,-3,-6,123,-150,49,24.700001,47.900002,979.080017
16/06/2023,17:58:58.868,0,19,994,-4,-5,-5,136,-153,43,24.700001,47.900002,979.080017
16/06/2023,17:58:58.877,0,20,995,-4,-4,-5,111,-157,33,24.700001,47.900002,979.080017
16/06/2023,17:58:58.887,1,19,994,-5,-5,-5,121,-135,39,24.700001,47.900002,979.080017
16/06/2023,17:58:58.896,3,17,994,-5,-5,-6,132,-141,36,24.700001,47.900002,979.080017
16/06/2023,17:58:58.905,4,16,994,-4,-5,-5,130,-147,36,24.700001,47.900002,979.080017
16/06/2023,17:58:58.915,2,19,995,-4,-3,-5,124,-147,43,24.700001,47.900002,979.080017
16/06/2023,17:58:58.924,1,19,994,-5,-3,-5,132,-147,36,24.700001,47.900002,979.080017
16/06/2023,17:58:58.933,0,18,991,-5,-3,-5,121,-151,33,24.700001,47.900002,979.080017
16/06/2023,17:58:58.942,0,19,994,-5,-4,-5,121,-151,33,24.700001,47.900002,979.080017
16/06/2023,17:58:58.951,0,18,996,-5,-3,-5,135,-151,33,24.700001,47.900002,979.080017
16/06/2023,17:58:58.961,0,18,994,-4,-2,-4,109,-157,28,24.700001,47.900002,979.080017
16/06/2023,17:58:58.971,1,18,994,-4,-3,-5,114,-145,39,24.700001,47.900002,979.080017
16/06/2023,17:58:58.980,1,18,994,-4,-3,-4,138,-154,42,24.700001,47.900002,979.080017
16/06/2023,17:58:58.990,2,18,994,-4,-2,-5,130,-148,15,24.700001,47.900002,979.080017
16/06/2023,17:58:58.999,2,17,993,-5,-3,-5,124,-156,36,24.700001,47.900002,979.080017
16/06/2023,17:58:59.008,3,18,993,-4,-4,-4,114,-144,30,24.700001,47.900002,979.080017
16/06/2023,17:58:59.018,2,17,993,-5,-4,-4,114,-139,40,24.700001,47.900002,979.080017
16/06/2023,17:58:59.027,3,17,994,-5,-4,-4,114,-145,31,24.700001,47.900002,979.080017
16/06/2023,17:58:59.036,4,18,996,-4,-4,-4,114,-145,31,24.700001,47.900002,979.080017
16/06/2023,17:58:59.046,1,20,995,-4,-4,-5,141,-153,51,24.700001,47.900002,979.080017
16/06/2023,17:58:59.055,1,18,993,-4,-4,-4,120,-141,42,24.700001,47.900002,979.080017
16/06/2023,17:58:59.065,3,17,993,-4,-4,-4,121,-151,34,24.700001,47.900002,979.080017
16/06/2023,17:58:59.074,1,18,994,-5,-4,-5,132,-147,22,24.700001,47.900002,979.080017
16/06/2023,17:58:59.083,1,19,995,-5,-2,-5,124,-160,42,24.700001,47.900002,979.080017
16/06/2023,17:58:59.093,3,20,995,-5,-3,-5,142,-133,19,24.700001,47.900002,979.080017
16/06/2023,17:58:59.102,1,18,994,-5,-5,-4,102,-150,54,24.700001,47.900002,979.080017
16/06/2023,17:58:59.111,1,18,995,-5,-4,-5,132,-168,33,24.700001,47.900002,979.080017
16/06/2023,17:58:59.120,3,17,995,-4,-4,-5,132,-168,33,24.700001,47.900002,979.080017
16/06/2023,17:58:59.130,5,15,996,-4,-4,-6,132,-159,34,24.700001,48.299999,979.080017
16/06/2023,17:58:59.139,5,17,996,-4,-4,-6,130,-162,39,24.700001,48.299999,979.080017
16/06/2023,17:58:59.149,4,18,994,-5,-5,-5,129,-162,30,24.700001,48.299999,979.080017
16/06/2023,17:58:59.158,2,18,995,-5,-4,-5,130,-150,30,24.700001,48.299999,979.080017
16/06/2023,17:58:59.168,1,19,994,-6,-5,-4,121,-148,48,24.700001,48.299999,979.080017
16/06/2023,17:58:59.177,2,17,994,-5,-5,-5,120,-136,28,24.700001,48.299999,979.080017
16/06/2023,17:58:59.186,1,16,995,-5,-4,-4,142,-147,28,24.700001,48.299999,979.080017
16/06/2023,17:58:59.196,2,17,993,-5,-4,-5,127,-148,33,24.700001,48.299999,979.080017
16/06/2023,17:58:59.204,2,17,993,-5,-3,-5,127,-148,33,24.700001,48.299999,979.080017
16/06/2023,17:58:59.214,3,16,993,-5,-3,-5,114,-139,34,24.700001,48.299999,979.080017
16/06/2023,17:58:59.224,1,16,996,-5,-3,-6,118,-144,25,24.700001,48.299999,979.080017
16/06/2023,17:58:59.233,0,18,995,-5,-3,-6,118,-145,36,24.700001,48.299999,979.080017
16/06/2023,17:58:59.243,2,18,993,-5,-3,-4,133,-159,36,24.700001,48.299999,979.080017
16/06/2023,17:58:59.252,3,20,996,-4,-4,-4,123,-145,36,24.700001,48.299999,979.080017
16/06/2023,17:58:59.261,2,21,996,-4,-5,-6,129,-154,45,24.700001,48.299999,979.080017
16/06/2023,17:58:59.271,1,21,996,-4,-3,-6,118,-157,45,24.700001,48.299999,979.080017
16/06/2023,17:58:59.280,1,20,996,-4,-4,-5,145,-145,10,24.700001,48.299999,979.080017
16/06/2023,17:58:59.289,2,19,995,-5,-4,-5,145,-145,10,24.700001,48.299999,979.080017
16/06/2023,17:58:59.298,2,19,994,-5,-4,-6,118,-154,31,24.700001,48.299999,979.080017
16/06/2023,17:58:59.308,1,17,994,-5,-4,-5,118,-138,27,24.700001,48.299999,979.080017
16/06/2023,17:58:59.317,1,16,994,-5,-3,-5,120,-160,24,24.700001,48.299999,979.080017
16/06/2023,17:58:59.327,3,19,994,-5,-6,-6,133,-151,36,24.700001,48.299999,979.080017
16/06/2023,17:58:59.336,2,19,996,-5,-5,-5,139,-144,45,24.700001,48.299999,979.080017
16/06/2023,17:58:59.346,2,17,993,-4,-4,-4,142,-156,30,24.700001,48.299999,979.080017
16/06/2023,17:58:59.355,1,18,993,-4,-4,-4,139,-157,39,24.700001,48.299999,979.080017
16/06/2023,17:58:59.364,0,20,996,-5,-3,-4,130,-123,39,24.700001,48.299999,979.080017
16/06/2023,17:58:59.374,4,18,995,-5,-6,-4,133,-168,24,24.700001,48.299999,979.080017
16/06/2023,17:58:59.382,3,16,994,-4,-5,-6,133,-168,24,24.700001,48.299999,979.080017
16/06/2023,17:58:59.392,1,19,994,-5,-4,-5,142,-153,28,24.700001,48.299999,979.080017
16/06/2023,17:58:59.402,1,20,992,-4,-4,-5,138,-157,21,24.700001,48.299999,979.080017
16/06/2023,17:58:59.411,0,19,995,-4,-4,-5,124,-156,64,24.700001,48.299999,979.080017
16/06/2023,17:58:59.421,0,17,996,-5,-4,-5,142,-150,27,24.700001,48.299999,979.080017
16/06/2023,17:58:59.430,3,19,995,-5,-4,-5,123,-150,33,24.700001,48.299999,979.080017
16/06/2023,17:58:59.439,4,21,996,-5,-4,-5,129,-141,45,24.700001,48.299999,979.080017
16/06/2023,17:58:59.449,2,21,996,-5,-3,-5,124,-135,30,24.700001,48.299999,979.080017
16/06/2023,17:58:59.458,1,21,996,-4,-4,-5,124,-153,33,24.700001,48.299999,979.080017
16/06/2023,17:58:59.467,4,20,994,-4,-4,-5,120,-162,30,24.700001,48.299999,979.080017
16/06/2023,17:58:59.476,2,20,995,-4,-4,-4,120,-162,30,24.700001,48.299999,979.080017
16/06/2023,17:58:59.486,0,20,994,-4,-4,-4,115,-156,33,24.700001,48.299999,979.080017
16/06/2023,17:58:59.496,2,20,994,-5,-4,-5,117,-145,48,24.700001,48.299999,979.080017
16/06/2023,17:58:59.505,1,20,996,-6,-4,-5,117,-145,48,24.700001,48.299999,979.080017
16/06/2023,17:58:59.514,0,20,993,-5,-4,-5,136,-156,39,24.700001,48.299999,979.080017
16/06/2023,17:58:59.524,1,18,993,-5,-4,-5,124,-145,25,24.700001,48.299999,979.080017
16/06/2023,17:58:59.533,1,17,995,-5,-6,-3,127,-132,36,24.700001,48.299999,979.080017
16/06/2023,17:58:59.542,2,17,995,-4,-5,-5,124,-142,36,24.700001,48.299999,979.080017
16/06/2023,17:58:59.552,4,17,994,-4,-4,-6,109,-151,42,24.700001,48.299999,979.080017
16/06/2023,17:58:59.560,4,17,994,-5,-3,-6,109,-151,42,24.700001,48.299999,979.080017
16/06/2023,17:58:59.570,3,19,993,-5,-3,-6,118,-168,33,24.700001,48.299999,979.080017
16/06/2023,17:58:59.580,2,19,992,-5,-3,-5,142,-160,34,24.700001,48.299999,979.080017
16/06/2023,17:58:59.589,0,18,992,-5,-3,-5,120,-165,33,24.700001,48.299999,979.080017
16/06/2023,17:58:59.599,0,19,992,-4,-4,-5,136,-156,37,24.700001,48.299999,979.080017
16/06/2023,17:58:59.608,0,20,993,-4,-5,-4,132,-148,13,24.700001,48.299999,979.080017
16/06/2023,17:58:59.617,0,19,995,-4,-5,-4,136,-165,46,24.700001,48.299999,979.080017
16/06/2023,17:58:59.627,1,17,995,-4,-5,-5,139,-153,33,24.700001,48.299999,979.080017
16/06/2023,17:58:59.636,3,20,994,-4,-5,-4,138,-169,24,24.700001,48.299999,979.080017
16/06/2023,17:58:59.645,1,21,993,-4,-4,-5,126,-156,40,24.700001,48.299999,979.080017
16/06/2023,17:58:59.654,0,19,994,-5,-4,-5,126,-156,40,24.700001,48.299999,979.080017
16/06/2023,17:58:59.664,1,18,994,-5,-1,-5,117,-154,48,24.700001,48.299999,979.080017
16/06/2023,17:58:59.674,1,19,996,-4,-3,-4,133,-162,28,24.700001,48.299999,979.080017
16/06/2023,17:58:59.683,3,20,997,-5,-4,-5,135,-153,22,24.700001,48.299999,979.080017
16/06/2023,17:58:59.692,3,17,994,-5,-3,-5,126,-147,18,24.700001,48.299999,979.080017
16/06/2023,17:58:59.702,3,17,995,-4,-3,-5,136,-151,21,24.700001,48.299999,979.080017
16/06/2023,17:58:59.711,1,18,994,-5,-4,-5,118,-156,40,24.700001,48.299999,979.080017
16/06/2023,17:58:59.720,1,17,993,-5,-3,-5,117,-138,25,24.700001,48.299999,979.080017
16/06/2023,17:58:59.730,0,18,994,-5,-4,-5,115,-142,28,24.700001,48.299999,979.080017
16/06/2023,17:58:59.738,0,18,994,-4,-5,-4,115,-142,28,24.700001,48.299999,979.080017
16/06/2023,17:58:59.748,2,16,995,-5,-4,-4,132,-141,25,24.700001,48.299999,979.080017
16/06/2023,17:58:59.758,2,16,995,-4,-4,-4,139,-148,27,24.700001,48.299999,979.080017
16/06/2023,17:58:59.767,3,18,994,-5,-4,-4,123,-157,9,24.700001,48.299999,979.080017
16/06/2023,17:58:59.777,5,17,996,-3,-3,-5,133,-151,31,24.700001,48.299999,979.080017
16/06/2023,17:58:59.786,3,17,996,-4,-3,-5,135,-154,34,24.700001,48.299999,979.080017
16/06/2023,17:58:59.795,2,19,994,-4,-3,-5,120,-162,18,24.700001,48.299999,979.080017
16/06/2023,17:58:59.805,1,18,994,-4,-4,-4,123,-142,19,24.700001,48.299999,979.080017
16/06/2023,17:58:59.814,-1,17,994,-4,-4,-4,130,-154,16,24.700001,48.299999,979.080017
16/06/2023,17:58:59.827,-1,18,994,-5,-3,-5,112,-150,22,24.700001,48.299999,979.080017
16/06/2023,17:58:59.832,0,21,993,-5,-3,-5,112,-150,22,24.700001,48.299999,979.080017
16/06/2023,17:58:59.842,1,19,993,-4,-3,-5,130,-141,33,24.700001,48.299999,979.080017
16/06/2023,17:58:59.852,1,17,994,-4,-3,-5,133,-156,43,24.700001,48.299999,979.080017
16/06/2023,17:58:59.861,2,18,994,-4,-4,-5,124,-144,37,24.700001,48.299999,979.080017
16/06/2023,17:58:59.870,1,17,995,-4,-4,-5,120,-127,24,24.700001,48.299999,979.080017
16/06/2023,17:58:59.883,2,19,995,-4,-4,-5,141,-165,39,24.700001,48.299999,979.080017
16/06/2023,17:58:59.889,2,20,995,-5,-5,-5,121,-171,63,24.700001,48.299999,979.080017
16/06/2023,17:58:59.898,1,18,993,-5,-5,-4,129,-151,33,24.700001,48.299999,979.080017
16/06/2023,17:58:59.908,1,18,993,-5,-5,-5,132,-159,21,24.700001,48.299999,979.080017
16/06/2023,17:58:59.917,3,19,992,-5,-4,-6,126,-160,16,24.700001,48.299999,979.080017
16/06/2023,17:58:59.926,2,20,993,-5,-4,-6,126,-160,16,24.700001,48.299999,979.080017
16/06/2023,17:58:59.938,0,18,994,-5,-4,-5,135,-168,21,24.700001,48.299999,979.080017
16/06/2023,17:58:59.945,0,19,995,-4,-4,-5,136,-165,28,24.700001,48.299999,979.080017
16/06/2023,17:58:59.955,2,20,995,-3,-4,-5,117,-156,30,24.700001,48.299999,979.080017
16/06/2023,17:58:59.964,3,17,994,-4,-5,-5,109,-157,27,24.700001,48.299999,979.080017
16/06/2023,17:58:59.973,3,18,994,-4,-4,-5,132,-157,15,24.700001,48.299999,979.080017
16/06/2023,17:58:59.983,3,22,996,-4,-4,-5,135,-165,13,24.700001,48.299999,979.080017
16/06/2023,17:58:59.992,2,19,996,-5,-3,-5,130,-160,28,24.700001,48.299999,979.080017
16/06/2023,17:59:00.001,0,19,995,-4,-4,-5,117,-147,39,24.700001,48.299999,979.080017
16/06/2023,17:59:00.010,0,18,994,-4,-4,-5,117,-147,39,24.700001,48.299999,979.080017
16/06/2023,17:59:00.020,2,17,993,-4,-5,-5,120,-159,21,24.700001,48.299999,979.080017
16/06/2023,17:59:00.030,2,20,995,-4,-4,-5,144,-147,31,24.700001,48.299999,979.080017
16/06/2023,17:59:00.039,0,19,995,-5,-4,-5,123,-154,15,24.700001,48.299999,979.080017
16/06/2023,17:59:00.048,0,16,994,-6,-3,-5,127,-171,37,24.700001,48.299999,979.080017
16/06/2023,17:59:00.058,3,15,995,-5,-3,-6,129,-154,19,24.700001,48.299999,979.080017
16/06/2023,17:59:00.067,1,17,994,-5,-2,-5,123,-144,40,24.700001,48.299999,979.080017
16/06/2023,17:59:00.076,1,17,994,-5,-4,-5,142,-142,25,24.700001,48.299999,979.080017
16/06/2023,17:59:00.086,3,18,996,-5,-4,-6,123,-172,9,24.700001,48.299999,979.080017
16/06/2023,17:59:00.095,0,21,996,-4,-4,-5,118,-151,21,24.700001,48.299999,979.080017
16/06/2023,17:59:00.104,2,20,995,-5,-4,-5,118,-151,21,24.700001,48.299999,979.080017
16/06/2023,17:59:00.113,4,18,994,-5,-4,-5,123,-151,48,24.700001,48.299999,979.080017
16/06/2023,17:59:00.123,3,20,993,-6,-3,-5,100,-171,25,24.700001,48.299999,979.080017
16/06/2023,17:59:00.133,2,19,994,-5,-3,-5,126,-154,28,24.700001,48.299999,979.080017
16/06/2023,17:59:00.142,2,18,996,-4,-3,-5,127,-166,19,24.700001,48.299999,979.080017
16/06/2023,17:59:00.151,2,18,996,-4,-4,-5,129,-153,21,24.700001,48.299999,979.080017
16/06/2023,17:59:00.161,2,16,994,-5,-3,-5,138,-165,30,24.700001,48.299999,979.080017
16/06/2023,17:59:00.170,2,16,994,-4,-4,-4,138,-165,30,25.000000,48.099998,979.080017
16/06/2023,17:59:00.179,3,18,995,-4,-4,-4,124,-171,34,25.000000,48.099998,979.049988
16/06/2023,17:59:00.189,3,21,995,-5,-4,-4,144,-163,16,25.000000,48.099998,979.049988
16/06/2023,17:59:00.198,1,18,995,-5,-5,-4,144,-163,16,25.000000,48.099998,979.049988
16/06/2023,17:59:00.207,0,17,994,-4,-3,-4,129,-156,24,25.000000,48.099998,979.049988
16/06/2023,17:59:00.217,3,19,994,-5,-4,-4,123,-153,36,25.000000,48.099998,979.049988
16/06/2023,17:59:00.226,4,17,995,-5,-6,-4,121,-153,25,25.000000,48.099998,979.049988
16/06/2023,17:59:00.236,2,14,995,-4,-5,-5,130,-165,28,25.000000,48.099998,979.049988
16/06/2023,17:59:00.245,1,17,995,-5,-5,-5,151,-153,24,25.000000,48.099998,979.049988
16/06/2023,17:59:00.254,1,17,995,-5,-5,-5,132,-154,42,25.000000,48.099998,979.049988
16/06/2023,17:59:00.264,4,20,992,-4,-5,-4,144,-156,24,25.000000,48.099998,979.049988
16/06/2023,17:59:00.273,4,20,992,-5,-4,-5,129,-153,51,25.000000,48.099998,979.049988
16/06/2023,17:59:00.282,1,20,994,-5,-4,-4,124,-148,39,25.000000,48.099998,979.049988
16/06/2023,17:59:00.291,1,19,994,-5,-4,-4,124,-148,39,25.000000,48.099998,979.049988
16/06/2023,17:59:00.301,3,19,994,-5,-5,-5,133,-171,16,25.000000,48.099998,979.049988
16/06/2023,17:59:00.311,3,19,996,-5,-5,-5,138,-151,18,25.000000,48.099998,979.049988
16/06/2023,17:59:00.320,1,19,995,-5,-5,-4,120,-156,30,25.000000,48.099998,979.049988
16/06/2023,17:59:00.329,2,19,994,-4,-3,-5,106,-142,7,25.000000,48.099998,979.049988
16/06/2023,17:59:00.339,3,19,994,-4,-3,-4,118,-136,30,25.000000,48.099998,979.049988
16/06/2023,17:59:00.348,1,18,995,-4,-4,-4,144,-136,30,25.000000,48.099998,979.049988
16/06/2023,17:59:00.357,2,18,994,-5,-4,-4,117,-157,18,25.000000,48.099998,979.049988
16/06/2023,17:59:00.367,3,18,995,-5,-4,-5,121,-159,13,25.000000,48.099998,979.049988
16/06/2023,17:59:00.376,3,18,997,-5,-4,-5,105,-156,25,25.000000,48.099998,979.049988
16/06/2023,17:59:00.385,2,19,995,-4,-6,-5,105,-156,25,25.000000,48.099998,979.049988
16/06/2023,17:59:00.394,1,18,995,-5,-5,-4,120,-178,27,25.000000,48.099998,979.049988
16/06/2023,17:59:00.404,2,19,994,-5,-4,-5,145,-154,33,25.000000,48.099998,979.049988
16/06/2023,17:59:00.414,1,19,995,-4,-4,-5,138,-133,21,25.000000,48.099998,979.049988
16/06/2023,17:59:00.423,1,18,994,-3,-3,-6,121,-141,34,25.000000,48.099998,979.049988
16/06/2023,17:59:00.432,3,19,994,-5,-3,-4,120,-168,21,25.000000,48.099998,979.049988
16/06/2023,17:59:00.442,2,17,995,-5,-4,-5,150,-165,7,25.000000,48.099998,979.049988
16/06/2023,17:59:00.451,1,17,994,-5,-3,-5,124,-156,27,25.000000,48.099998,979.049988
16/06/2023,17:59:00.460,1,18,994,-5,-4,-5,123,-147,33,25.000000,48.099998,979.049988
16/06/2023,17:59:00.470,0,17,993,-5,-5,-5,120,-166,16,25.000000,48.099998,979.049988
16/06/2023,17:59:00.479,0,18,991,-5,-4,-5,120,-166,16,25.000000,48.099998,979.049988
16/06/2023,17:59:00.488,2,19,994,-5,-4,-5,129,-162,39,25.000000,48.099998,979.049988
16/06/2023,17:59:00.498,2,18,994,-5,-5,-4,117,-148,55,25.000000,48.099998,979.049988
16/06/2023,17:59:00.507,2,16,991,-5,-4,-6,120,-139,42,25.000000,48.099998,979.049988
16/06/2023,17:59:00.517,2,17,992,-5,-4,-5,144,-166,30,25.000000,48.099998,979.049988
16/06/2023,17:59:00.526,1,19,992,-5,-4,-5,121,-151,25,25.000000,48.099998,979.049988
16/06/2023,17:59:00.535,0,17,993,-4,-4,-4,121,-144,13,25.000000,48.099998,979.049988
16/06/2023,17:59:00.545,0,19,995,-4,-3,-5,151,-165,18,25.000000,48.099998,979.049988
16/06/2023,17:59:00.554,0,21,995,-5,-3,-6,126,-168,15,25.000000,48.099998,979.049988
16/06/2023,17:59:00.563,0,18,993,-4,-3,-4,126,-168,15,25.000000,48.099998,979.049988
16/06/2023,17:59:00.572,2,16,995,-5,-2,-5,121,-160,31,25.000000,48.099998,979.049988
16/06/2023,17:59:00.582,3,17,996,-5,-4,-5,118,-160,27,25.000000,48.099998,979.049988
16/06/2023,17:59:00.592,3,21,997,-6,-3,-5,132,-153,25,25.000000,48.099998,979.049988
16/06/2023,17:59:00.601,3,21,997,-5,-4,-5,135,-141,15,25.000000,48.099998,979.049988
16/06/2023,17:59:00.610,4,19,995,-4,-4,-6,121,-154,40,25.000000,48.099998,979.049988
16/06/2023,17:59:00.620,3,18,995,-4,-4,-6,127,-160,34,25.000000,48.099998,979.049988
16/06/2023,17:59:00.629,3,19,995,-4,-3,-4,123,-150,30,25.000000,48.099998,979.049988
16/06/2023,17:59:00.639,2,19,994,-5,-4,-5,124,-147,22,25.000000,48.099998,979.049988
16/06/2023,17:59:00.648,1,20,994,-5,-5,-5,127,-150,19,25.000000,48.099998,979.049988
16/06/2023,17:59:00.657,2,20,995,-5,-4,-5,127,-150,19,25.000000,48.099998,979.049988
16/06/2023,17:59:00.666,3,19,994,-5,-4,-4,129,-154,36,25.000000,48.099998,979.049988
16/06/2023,17:59:00.676,1,19,993,-5,-5,-5,129,-154,36,25.000000,48.099998,979.049988
16/06/2023,17:59:00.685,2,21,993,-5,-3,-6,126,-154,25,25.000000,48.099998,979.049988
16/06/2023,17:59:00.695,3,17,992,-5,-3,-5,123,-150,19,25.000000,48.099998,979.049988
16/06/2023,17:59:00.704,2,16,992,-4,-4,-5,129,-160,28,25.000000,48.099998,979.049988
16/06/2023,17:59:00.713,1,18,993,-5,-4,-5,123,-151,24,25.000000,48.099998,979.049988
16/06/2023,17:59:00.723,3,19,995,-5,-9,-4,108,-154,52,25.000000,48.099998,979.049988
16/06/2023,17:59:00.732,3,18,996,-5,-7,-4,130,-165,21,25.000000,48.099998,979.049988
16/06/2023,17:59:00.742,1,17,996,-4,-5,-4,130,-165,27,25.000000,48.099998,979.049988
16/06/2023,17:59:00.750,1,17,994,-4,-4,-4,130,-165,27,25.000000,48.099998,979.049988
16/06/2023,17:59:00.760,3,19,993,-5,-4,-5,130,-165,18,25.000000,48.099998,979.049988
16/06/2023,17:59:00.770,3,20,994,-4,-5,-5,120,-171,15,25.000000,48.099998,979.049988
16/06/2023,17:59:00.779,3,18,993,-4,-4,-5,115,-151,36,25.000000,48.099998,979.049988
16/06/2023,17:59:00.788,3,16,995,-5,-4,-6,124,-162,30,25.000000,48.099998,979.049988
16/06/2023,17:59:00.798,2,19,995,-4,-5,-4,126,-168,27,25.000000,48.099998,979.049988
16/06/2023,17:59:00.807,1,20,995,-5,-4,-5,118,-159,21,25.000000,48.099998,979.049988
16/06/2023,17:59:00.817,4,17,996,-6,-4,-4,127,-151,40,25.000000,48.099998,979.049988
16/06/2023,17:59:00.826,5,19,995,-5,-3,-4,133,-160,25,25.000000,48.099998,979.049988
16/06/2023,17:59:00.835,2,19,993,-5,-4,-5,130,-151,16,25.000000,48.099998,979.049988
16/06/2023,17:59:00.844,0,19,993,-5,-4,-5,130,-151,16,25.000000,48.099998,979.049988
16/06/2023,17:59:00.853,1,19,995,-5,-4,-5,130,-159,22,25.000000,48.099998,979.049988
16/06/2023,17:59:00.863,4,17,995,-5,-5,-5,142,-162,25,25.000000,48.099998,979.049988
16/06/2023,17:59:00.873,3,16,994,-5,-5,-5,124,-150,31,25.000000,48.099998,979.049988
16/06/2023,17:59:00.882,1,16,995,-5,-5,-6,127,-165,16,25.000000,48.099998,979.049988
16/06/2023,17:59:00.891,0,18,995,-4,-5,-5,124,-145,21,25.000000,48.099998,979.049988
16/06/2023,17:59:00.901,2,19,994,-4,-3,-4,102,-153,15,25.000000,48.099998,979.049988
16/06/2023,17:59:00.910,0,17,994,-5,-4,-5,130,-168,27,25.000000,48.099998,979.049988
16/06/2023,17:59:00.920,0,17,995,-4,-3,-6,120,-168,31,25.000000,48.099998,979.049988
16/06/2023,17:59:00.929,2,18,995,-4,-4,-6,142,-156,16,25.000000,48.099998,979.049988
16/06/2023,17:59:00.938,2,18,995,-4,-4,-4,142,-156,16,25.000000,48.099998,979.049988
16/06/2023,17:59:00.948,3,19,995,-5,-3,-4,126,-166,22,25.000000,48.099998,979.049988
16/06/2023,17:59:00.957,4,19,993,-5,-4,-4,112,-144,10,25.000000,48.099998,979.049988
16/06/2023,17:59:00.966,2,18,992,-4,-6,-6,130,-159,13,25.000000,48.099998,979.049988
16/06/2023,17:59:00.976,0,18,995,-4,-5,-5,133,-150,22,25.000000,48.099998,979.049988
16/06/2023,17:59:00.985,0,19,994,-4,-4,-5,117,-147,18,25.000000,48.099998,979.049988
16/06/2023,17:59:00.995,1,20,992,-5,-4,-6,132,-171,24,25.000000,48.099998,979.049988
16/06/2023,17:59:01.004,0,18,993,-5,-6,-5,129,-151,28,25.000000,48.099998,979.049988
16/06/2023,17:59:01.013,0,16,994,-5,-6,-6,124,-160,36,25.000000,48.099998,979.049988
16/06/2023,17:59:01.022,3,16,993,-5,-4,-6,124,-160,36,25.000000,48.099998,979.049988
16/06/2023,17:59:01.031,2,17,994,-5,-4,-5,127,-151,34,25.000000,48.099998,979.049988
16/06/2023,17:59:01.041,2,19,992,-4,-5,-5,130,-175,33,25.000000,48.099998,979.049988
16/06/2023,17:59:01.054,2,19,994,-4,-4,-6,121,-160,31,25.000000,48.099998,979.049988
16/06/2023,17:59:01.060,1,17,995,-5,0,-6,139,-160,33,25.000000,48.099998,979.049988
16/06/2023,17:59:01.069,2,16,995,-5,-3,-5,142,-148,33,25.000000,48.099998,979.049988
16/06/2023,17:59:01.079,1,18,994,-4,-4,-4,130,-147,27,25.000000,48.099998,979.049988
16/06/2023,17:59:01.088,1,17,992,-4,-5,-3,115,-154,22,25.000000,48.099998,979.049988
16/06/2023,17:59:01.098,3,19,993,-5,-4,-4,120,-160,31,25.000000,48.099998,979.049988
16/06/2023,17:59:01.110,3,18,993,-5,-3,-5,118,-168,15,25.000000,48.099998,979.049988
16/06/2023,17:59:01.116,0,15,994,-4,-5,-5,118,-168,15,25.000000,48.099998,979.049988
16/06/2023,17:59:01.125,0,17,994,-5,-4,-4,111,-139,55,25.000000,48.099998,979.049988
16/06/2023,17:59:01.135,1,19,993,-4,-5,-4,126,-169,36,25.000000,48.099998,979.049988
16/06/2023,17:59:01.144,0,20,992,-5,-6,-4,121,-166,22,25.000000,48.099998,979.049988
16/06/2023,17:59:01.154,0,21,994,-4,-5,-5,136,-174,30,25.000000,48.099998,979.049988
16/06/2023,17:59:01.166,2,19,994,-4,-5,-5,120,-165,28,25.000000,48.099998,979.049988
16/06/2023,17:59:01.173,1,17,993,-5,-5,-6,127,-159,16,25.000000,48.099998,979.049988
16/06/2023,17:59:01.182,1,20,993,-5,-5,-5,109,-171,33,25.000000,48.099998,979.049988
16/06/2023,17:59:01.191,1,19,995,-4,-4,-6,118,-153,37,25.000000,48.099998,979.049988
16/06/2023,17:59:01.201,0,17,996,-4,-4,-6,115,-150,15,25.000000,48.099998,979.049988
16/06/2023,17:59:01.209,0,20,993,-4,-4,-5,115,-150,15,25.000000,48.099998,979.049988
16/06/2023,17:59:01.219,1,20,994,-4,-4,-5,120,-171,28,25.000000,48.099998,979.070007
16/06/2023,17:59:01.229,3,20,995,-4,-4,-4,117,-162,39,25.000000,48.099998,979.070007
16/06/2023,17:59:01.238,1,18,994,-4,-4,-5,121,-162,36,25.000000,48.099998,979.070007
16/06/2023,17:59:01.247,0,18,995,-4,-4,-5,112,-150,24,25.000000,48.099998,979.070007
16/06/2023,17:59:01.257,0,19,996,-4,-5,-5,117,-150,45,25.000000,48.099998,979.070007
16/06/2023,17:59:01.266,0,17,995,-5,-4,-4,132,-166,18,25.000000,48.099998,979.070007
16/06/2023,17:59:01.276,0,20,992,-5,-3,-4,114,-148,42,25.000000,48.099998,979.070007
16/06/2023,17:59:01.285,3,20,992,-4,-4,-4,129,-148,19,25.000000,48.099998,979.070007
16/06/2023,17:59:01.294,3,20,992,-5,-5,-5,115,-166,24,25.000000,48.099998,979.070007
16/06/2023,17:59:01.303,4,18,993,-5,-4,-5,115,-166,24,25.000000,48.099998,979.070007
16/06/2023,17:59:01.312,4,19,993,-5,-5,-4,121,-159,16,25.000000,48.099998,979.070007
16/06/2023,17:59:01.322,4,17,995,-5,-4,-5,129,-160,27,25.000000,48.099998,979.070007
16/06/2023,17:59:01.332,2,18,995,-5,-4,-5,133,-147,43,25.000000,48.099998,979.070007
16/06/2023,17:59:01.341,2,20,995,-4,-4,-5,133,-147,43,25.000000,48.099998,979.070007
16/06/2023,17:59:01.351,2,19,993,-4,-4,-5,130,-160,19,25.000000,48.099998,979.070007
16/06/2023,17:59:01.360,1,18,993,-5,-4,-5,136,-162,36,25.000000,48.099998,979.070007
16/06/2023,17:59:01.369,3,18,994,-5,-4,-5,124,-151,39,25.000000,48.099998,979.070007
16/06/2023,17:59:01.379,2,18,995,-5,-4,-5,124,-153,25,25.000000,48.099998,979.070007
16/06/2023,17:59:01.388,1,17,995,-4,-3,-6,136,-153,30,25.000000,48.099998,979.070007
16/06/2023,17:59:01.397,3,20,994,-4,-4,-5,136,-153,30,25.000000,48.099998,979.070007
16/06/2023,17:59:01.406,4,20,992,-5,-4,-5,126,-165,34,25.000000,48.099998,979.070007
16/06/2023,17:59:01.416,3,17,992,-5,-4,-5,133,-153,22,25.000000,48.099998,979.070007
16/06/2023,17:59:01.425,2,18,994,-5,-5,-5,130,-153,16,25.000000,48.099998,979.070007
16/06/2023,17:59:01.435,1,19,994,-5,-5,-5,120,-151,22,25.000000,48.099998,979.070007
16/06/2023,17:59:01.444,1,19,993,-5,-6,-5,123,-157,21,25.000000,48.099998,979.070007
16/06/2023,17:59:01.454,0,19,996,-4,-4,-5,135,-153,18,25.000000,48.099998,979.070007
16/06/2023,17:59:01.462,1,18,996,-5,-5,-5,115,-157,37,25.000000,48.099998,979.070007
16/06/2023,17:59:01.472,3,15,995,-5,-4,-5,133,-151,28,25.000000,48.099998,979.070007
16/06/2023,17:59:01.482,3,15,996,-4,-3,-5,117,-151,24,25.000000,48.099998,979.070007
16/06/2023,17:59:01.490,0,19,995,-4,-4,-5,117,-151,24,25.000000,48.099998,979.070007
16/06/2023,17:59:01.500,1,19,993,-5,-4,-5,112,-177,48,25.000000,48.099998,979.070007
16/06/2023,17:59:01.510,3,19,994,-4,-2,-5,112,-177,48,25.000000,48.099998,979.070007
16/06/2023,17:59:01.519,4,20,993,-5,-4,-4,130,-162,18,25.000000,48.099998,979.070007
16/06/2023,17:59:01.529,3,19,992,-5,-4,-5,132,-154,27,25.000000,48.099998,979.070007
16/06/2023,17:59:01.538,2,18,993,-5,-4,-5,126,-166,25,25.000000,48.099998,979.070007
16/06/2023,17:59:01.547,2,17,994,-5,-4,-5,132,-154,27,25.000000,48.099998,979.070007
16/06/2023,17:59:01.557,2,15,994,-5,-4,-5,124,-147,40,25.000000,48.099998,979.070007
16/06/2023,17:59:01.566,0,16,993,-5,-4,-4,130,-148,31,25.000000,48.099998,979.070007
16/06/2023,17:59:01.575,0,17,994,-5,-4,-4,130,-148,31,25.000000,48.099998,979.070007
16/06/2023,17:59:01.584,1,18,995,-4,-3,-5,118,-174,16,25.000000,48.099998,979.070007
16/06/2023,17:59:01.594,3,19,994,-5,-4,-5,132,-154,24,25.000000,48.099998,979.070007
16/06/2023,17:59:01.604,2,19,992,-5,-4,-5,114,-160,10,25.000000,48.099998,979.070007
16/06/2023,17:59:01.613,1,19,994,-5,-3,-5,127,-159,36,25.000000,48.099998,979.070007
16/06/2023,17:59:01.622,2,19,994,-4,-3,-5,135,-157,22,25.000000,48.099998,979.070007
16/06/2023,17:59:01.632,4,20,993,-5,-5,-5,130,-156,36,25.000000,48.099998,979.070007
16/06/2023,17:59:01.641,4,20,993,-5,-4,-5,126,-160,30,25.000000,48.099998,979.070007
16/06/2023,17:59:01.650,3,20,992,-5,-4,-5,132,-151,13,25.000000,48.099998,979.070007
16/06/2023,17:59:01.660,1,20,993,-5,-5,-5,132,-156,28,25.000000,48.099998,979.070007
16/06/2023,17:59:01.668,0,20,997,-5,-4,-5,132,-156,28,25.000000,48.099998,979.070007
16/06/2023,17:59:01.678,2,18,996,-4,-4,-4,108,-166,37,25.000000,48.099998,979.070007
16/06/2023,17:59:01.688,2,18,994,-4,-3,-4,127,-157,34,25.000000,48.099998,979.070007
16/06/2023,17:59:01.697,2,17,995,-5,-3,-4,141,-139,39,25.000000,48.099998,979.070007
16/06/2023,17:59:01.707,4,16,995,-4,-4,-5,126,-169,9,25.000000,48.099998,979.070007
16/06/2023,17:59:01.716,3,18,994,-4,-3,-6,130,-163,18,25.000000,48.099998,979.070007
16/06/2023,17:59:01.725,4,18,992,-4,-5,-5,103,-153,36,25.000000,48.099998,979.070007
16/06/2023,17:59:01.735,4,18,994,-4,-5,-4,123,-148,21,25.000000,48.099998,979.070007
16/06/2023,17:59:01.744,2,18,994,-4,-4,-4,142,-160,33,25.000000,48.099998,979.070007
16/06/2023,17:59:01.753,0,19,993,-4,-4,-4,129,-156,42,25.000000,48.099998,979.070007
16/06/2023,17:59:01.762,1,19,993,-5,-5,-5,129,-156,42,25.000000,48.099998,979.070007
16/06/2023,17:59:01.772,0,18,993,-5,-3,-5,120,-151,28,25.000000,48.099998,979.070007
16/06/2023,17:59:01.782,1,19,994,-3,-3,-5,126,-147,28,25.000000,48.099998,979.070007
16/06/2023,17:59:01.791,2,20,994,-3,-4,-5,115,-165,25,25.000000,48.099998,979.070007
16/06/2023,17:59:01.800,3,19,995,-4,-4,-4,114,-153,16,25.000000,48.099998,979.070007
16/06/2023,17:59:01.810,2,19,994,-4,-4,-4,127,-165,27,25.000000,48.099998,979.070007
16/06/2023,17:59:01.819,0,20,992,-4,-4,-5,133,-156,25,25.000000,48.099998,979.070007
16/06/2023,17:59:01.828,3,20,994,-4,-4,-6,135,-163,15,25.000000,48.099998,979.070007
16/06/2023,17:59:01.838,4,20,993,-6,-4,-5,133,-166,12,25.000000,48.099998,979.070007
16/06/2023,17:59:01.846,3,19,992,-5,-4,-4,133,-166,12,25.000000,48.099998,979.070007
16/06/2023,17:59:01.856,2,18,992,-6,-4,-4,135,-163,28,25.000000,48.099998,979.070007
16/06/2023,17:59:01.866,0,18,993,-5,-5,-5,129,-150,31,25.000000,48.099998,979.070007
16/06/2023,17:59:01.875,1,20,994,-5,-4,-5,130,-163,36,25.000000,48.099998,979.070007
16/06/2023,17:59:01.885,2,20,994,-4,-3,-5,132,-159,30,25.000000,48.099998,979.070007
16/06/2023,17:59:01.894,2,19,995,-4,-3,-5,130,-165,36,25.000000,48.099998,979.070007
16/06/2023,17:59:01.903,2,18,994,-4,-4,-5,123,-145,31,25.000000,48.099998,979.070007
16/06/2023,17:59:01.913,0,17,993,-4,-4,-5,127,-141,18,25.000000,48.099998,979.070007
16/06/2023,17:59:01.922,0,18,996,-5,-5,-5,115,-154,31,25.000000,48.099998,979.070007
16/06/2023,17:59:01.931,0,18,995,-5,-4,-4,133,-142,36,25.000000,48.099998,979.070007
16/06/2023,17:59:01.940,0,19,993,-5,-3,-4,133,-142,36,25.000000,48.099998,979.070007
16/06/2023,17:59:01.950,1,21,993,-5,-3,-4,124,-154,30,25.000000,48.099998,979.070007
16/06/2023,17:59:01.960,2,20,993,-4,-4,-5,120,-168,21,25.000000,48.099998,979.070007
16/06/2023,17:59:01.969,0,19,994,-4,-4,-6,120,-151,25,25.000000,48.099998,979.070007
16/06/2023,17:59:01.978,1,20,992,-5,-4,-5,111,-165,31,25.000000,48.099998,979.070007
16/06/2023,17:59:01.988,1,20,992,-5,-4,-4,124,-151,39,25.000000,48.099998,979.070007
16/06/2023,17:59:01.997,3,16,993,-5,-3,-6,118,-166,15,25.000000,48.099998,979.070007
16/06/2023,17:59:02.006,3,15,994,-4,-4,-5,132,-154,31,25.000000,48.099998,979.070007
16/06/2023,17:59:02.016,3,18,993,-5,-4,-5,117,-142,22,25.000000,48.099998,979.070007
16/06/2023,17:59:02.024,3,18,993,-5,-5,-5,117,-142,22,25.000000,48.099998,979.070007
16/06/2023,17:59:02.034,3,18,994,-5,-4,-5,130,-157,21,25.000000,48.099998,979.070007
16/06/2023,17:59:02.044,3,20,993,-4,-4,-5,115,-160,46,25.000000,48.099998,979.070007
16/06/2023,17:59:02.053,2,20,993,-5,-3,-5,123,-168,21,25.000000,48.099998,979.070007
16/06/2023,17:59:02.063,0,21,995,-5,-4,-6,120,-163,19,25.000000,48.099998,979.070007
16/06/2023,17:59:02.072,1,19,996,-4,-4,-6,120,-157,36,25.000000,48.099998,979.070007
16/06/2023,17:59:02.081,0,17,995,-6,-4,-5,126,-169,13,25.000000,48.099998,979.070007
16/06/2023,17:59:02.090,0,19,995,-6,-3,-5,127,-169,19,25.000000,48.099998,979.070007
16/06/2023,17:59:02.100,2,21,995,-4,-3,-5,133,-162,19,25.000000,48.099998,979.070007
16/06/2023,17:59:02.109,2,21,996,-5,-4,-6,127,-171,27,25.000000,48.099998,979.070007
16/06/2023,17:59:02.118,1,20,997,-4,-4,-5,127,-171,27,25.000000,48.099998,979.070007
16/06/2023,17:59:02.128,2,19,995,-4,-4,-5,117,-157,45,25.000000,48.099998,979.070007
16/06/2023,17:59:02.138,2,18,995,-5,-4,-5,142,-144,40,25.000000,48.099998,979.070007
16/06/2023,17:59:02.147,1,18,996,-6,-4,-5,129,-156,22,25.000000,48.099998,979.070007
16/06/2023,17:59:02.156,1,16,995,-4,-5,-5,132,-150,31,25.000000,48.099998,979.070007
16/06/2023,17:59:02.166,2,16,994,-5,-5,-4,135,-154,16,25.000000,48.099998,979.070007
16/06/2023,17:59:02.175,3,17,994,-5,-4,-4,129,-162,24,25.000000,48.099998,979.070007
16/06/2023,17:59:02.184,4,18,994,-5,-4,-5,136,-166,24,25.000000,48.099998,979.070007
16/06/2023,17:59:02.194,3,19,994,-5,-4,-6,130,-174,18,25.000000,48.099998,979.070007
16/06/2023,17:59:02.203,2,18,995,-5,-5,-4,130,-154,25,25.000000,48.099998,979.070007
16/06/2023,17:59:02.212,5,19,993,-4,-4,-4,130,-154,25,25.000000,48.099998,979.070007
16/06/2023,17:59:02.221,3,20,992,-4,-4,-5,124,-165,19,25.000000,48.099998,979.070007
16/06/2023,17:59:02.231,2,19,995,-5,-3,-5,132,-163,24,25.000000,48.099998,979.070007
16/06/2023,17:59:02.241,3,20,996,-4,-4,-4,135,-168,36,25.000000,48.099998,979.070007
16/06/2023,17:59:02.250,1,19,995,-4,-4,-4,126,-165,36,25.000000,48.099998,979.070007
16/06/2023,17:59:02.259,-1,17,996,-4,-4,-5,129,-138,27,25.000000,48.099998,979.119995
16/06/2023,17:59:02.269,-2,17,995,-4,-4,-5,135,-145,16,25.000000,48.099998,979.119995
16/06/2023,17:59:02.282,2,17,995,-4,-4,-5,120,-150,25,25.000000,48.099998,979.119995
16/06/2023,17:59:02.287,3,19,995,-5,-3,-4,120,-150,25,25.000000,48.099998,979.119995
16/06/2023,17:59:02.296,2,18,994,-5,-4,-4,136,-157,36,25.000000,48.099998,979.119995
16/06/2023,17:59:02.306,0,16,993,-4,-3,-5,120,-162,25,25.000000,48.099998,979.119995
16/06/2023,17:59:02.316,3,18,995,-4,-5,-5,123,-156,25,25.000000,48.099998,979.119995
16/06/2023,17:59:02.325,3,18,994,-5,-4,-5,114,-147,31,25.000000,48.099998,979.119995
16/06/2023,17:59:02.337,3,18,994,-5,-3,-4,115,-151,22,25.000000,48.099998,979.119995
16/06/2023,17:59:02.344,1,19,992,-4,-4,-4,111,-159,52,25.000000,48.099998,979.119995
16/06/2023,17:59:02.353,0,18,992,-4,-4,-5,127,-148,21,25.000000,48.099998,979.119995
16/06/2023,17:59:02.362,0,17,994,-5,-4,-5,133,-136,25,25.000000,48.099998,979.119995
16/06/2023,17:59:02.372,0,19,994,-5,-5,-4,126,-159,19,25.000000,48.099998,979.119995
16/06/2023,17:59:02.381,0,20,993,-4,-5,-4,126,-159,19,25.000000,48.099998,979.119995
16/06/2023,17:59:02.393,2,19,994,-4,-5,-5,127,-169,7,25.000000,48.099998,979.119995
16/06/2023,17:59:02.400,5,18,994,-5,-4,-5,130,-154,16,25.000000,48.099998,979.119995
16/06/2023,17:59:02.409,3,18,994,-4,-4,-5,130,-160,28,25.000000,48.099998,979.119995
16/06/2023,17:59:02.419,1,16,993,-4,-3,-5,126,-138,16,25.000000,48.099998,979.119995
16/06/2023,17:59:02.428,0,17,993,-4,-4,-4,124,-165,28,25.000000,48.099998,979.119995
16/06/2023,17:59:02.437,0,16,996,-4,-3,-4,138,-160,40,25.000000,48.099998,979.119995
16/06/2023,17:59:02.447,0,17,996,-4,-6,-4,135,-157,22,25.000000,48.099998,979.119995
16/06/2023,17:59:02.456,0,19,996,-4,-4,-4,133,-165,27,25.000000,48.099998,979.119995
16/06/2023,17:59:02.465,0,19,995,-4,-4,-6,133,-165,27,25.000000,48.099998,979.119995
16/06/2023,17:59:02.474,0,18,994,-4,-4,-5,120,-150,25,25.000000,48.099998,979.119995
16/06/2023,17:59:02.484,0,19,996,-5,-4,-5,129,-157,25,25.000000,48.099998,979.119995
16/06/2023,17:59:02.494,0,18,995,-5,-3,-5,121,-168,27,25.000000,48.099998,979.119995
16/06/2023,17:59:02.503,1,18,994,-5,-2,-5,135,-159,28,25.000000,48.099998,979.119995
16/06/2023,17:59:02.512,2,18,995,-4,-2,-5,127,-159,16,25.000000,48.099998,979.119995
16/06/2023,17:59:02.522,1,18,996,-4,-3,-4,124,-160,24,25.000000,48.099998,979.119995
16/06/2023,17:59:02.531,4,18,994,-5,-4,-4,132,-148,31,25.000000,48.099998,979.119995
16/06/2023,17:59:02.540,5,19,994,-4,-4,-5,120,-151,22,25.000000,48.099998,979.119995
16/06/2023,17:59:02.550,4,20,995,-5,-3,-5,121,-163,36,25.000000,48.099998,979.119995
16/06/2023,17:59:02.559,2,18,994,-5,-4,-5,121,-163,36,25.000000,48.099998,979.119995
16/06/2023,17:59:02.568,1,18,996,-5,-3,-5,108,-145,33,25.000000,48.099998,979.119995
16/06/2023,17:59:02.578,1,20,996,-4,-3,-5,118,-160,19,25.000000,48.099998,979.119995
16/06/2023,17:59:02.587,1,19,995,-5,-4,-4,121,-135,18,25.000000,48.099998,979.119995
16/06/2023,17:59:02.597,2,19,995,-4,-5,-4,120,-148,21,25.000000,48.099998,979.119995
16/06/2023,17:59:02.606,2,21,996,-4,-5,-4,126,-174,42,25.000000,48.099998,979.119995
16/06/2023,17:59:02.615,2,20,994,-4,-5,-5,132,-154,19,25.000000,48.099998,979.119995
16/06/2023,17:59:02.625,0,16,992,-4,-5,-5,126,-162,24,25.000000,48.099998,979.119995
16/06/2023,17:59:02.634,1,16,993,-5,-5,-5,117,-169,24,25.000000,48.099998,979.119995
16/06/2023,17:59:02.643,1,18,993,-4,-6,-5,117,-165,22,25.000000,48.099998,979.119995
16/06/2023,17:59:02.652,0,19,994,-4,-4,-5,117,-165,22,25.000000,48.099998,979.119995
16/06/2023,17:59:02.662,0,19,994,-4,-4,-5,115,-144,27,25.000000,48.099998,979.119995
16/06/2023,17:59:02.672,2,20,995,-5,-5,-5,139,-153,42,25.000000,48.099998,979.119995
16/06/2023,17:59:02.681,2,20,995,-5,-4,-5,121,-139,13,25.000000,48.099998,979.119995
16/06/2023,17:59:02.690,2,19,996,-4,-2,-4,126,-166,25,25.000000,48.099998,979.119995
16/06/2023,17:59:02.700,1,19,995,-4,-3,-5,117,-159,34,25.000000,48.099998,979.119995
16/06/2023,17:59:02.709,2,20,995,-5,-4,-4,127,-154,15,25.000000,48.099998,979.119995
16/06/2023,17:59:02.718,2,20,993,-5,-4,-4,121,-171,30,25.000000,48.099998,979.119995
16/06/2023,17:59:02.728,2,18,993,-5,-3,-5,124,-162,51,25.000000,48.099998,979.119995
16/06/2023,17:59:02.737,1,18,993,-4,-4,-5,124,-162,51,25.000000,48.099998,979.119995
16/06/2023,17:59:02.746,3,17,994,-4,-4,-4,114,-145,21,25.000000,48.099998,979.119995
16/06/2023,17:59:02.756,3,17,994,-5,-3,-5,133,-165,28,25.000000,48.099998,979.119995
16/06/2023,17:59:02.765,2,20,994,-5,-4,-6,120,-178,9,25.000000,48.099998,979.119995
16/06/2023,17:59:02.775,1,17,996,-5,-3,-6,133,-166,28,25.000000,48.099998,979.119995
16/06/2023,17:59:02.784,1,14,995,-5,-5,-4,142,-156,28,25.000000,48.099998,979.119995
16/06/2023,17:59:02.793,1,17,992,-5,-4,-6,124,-150,30,25.000000,48.099998,979.119995
16/06/2023,17:59:02.803,0,16,992,-4,-5,-5,124,-150,31,25.000000,48.099998,979.119995
16/06/2023,17:59:02.812,0,16,996,-3,-5,-5,142,-157,25,25.000000,48.099998,979.119995
16/06/2023,17:59:02.821,1,17,998,-5,-5,-5,124,-157,9,25.000000,48.099998,979.119995
16/06/2023,17:59:02.830,2,17,995,-5,-5,-6,124,-157,9,25.000000,48.099998,979.119995
16/06/2023,17:59:02.840,1,16,993,-5,-4,-5,129,-153,31,25.000000,48.099998,979.119995
16/06/2023,17:59:02.850,0,17,993,-5,-4,-5,115,-165,39,25.000000,48.099998,979.119995
16/06/2023,17:59:02.859,2,19,996,-4,-4,-5,120,-151,28,25.000000,48.099998,979.119995
16/06/2023,17:59:02.868,3,21,997,-5,-4,-5,129,-159,39,25.000000,48.099998,979.119995
16/06/2023,17:59:02.878,0,20,997,-5,-2,-5,130,-154,31,25.000000,48.099998,979.119995
16/06/2023,17:59:02.887,0,18,996,-5,-3,-4,129,-151,30,25.000000,48.099998,979.119995
16/06/2023,17:59:02.896,1,18,995,-5,-4,-4,115,-160,36,25.000000,48.099998,979.119995
16/06/2023,17:59:02.906,3,20,995,-5,-4,-4,130,-151,24,25.000000,48.099998,979.119995
16/06/2023,17:59:02.915,2,20,996,-5,-4,-5,130,-151,24,25.000000,48.099998,979.119995
16/06/2023,17:59:02.924,3,19,996,-4,-3,-6,123,-168,30,25.000000,48.099998,979.119995
16/06/2023,17:59:02.934,2,19,994,-4,-4,-5,123,-139,24,25.000000,48.099998,979.119995
16/06/2023,17:59:02.943,0,17,994,-5,-4,-4,129,-162,22,25.000000,48.099998,979.119995
