dd/mm/yyyy,hh:mm:ss.ms,accX[mg],accY[mg],accZ[mg],gyroX[mdps],gyroY[mdps],gyroZ[mdps],magX[mG],magY[mG],magZ[mG],T[degC],rH[%],Press[hPa],
01/01/2000,00:09:45.124,-937,-191,83,48,-42,18,700,112,396,0.000000,0.000000,0.000000
01/01/2000,00:09:45.124,-937,-191,83,48,-42,18,700,112,396,0.000000,0.000000,0.000000
01/01/2000,00:09:45.125,-937,-191,83,48,-42,18,700,112,396,0.000000,0.000000,0.000000
01/01/2000,00:09:45.125,-937,-191,83,48,-42,18,700,112,396,0.000000,0.000000,0.000000
01/01/2000,00:09:45.126,-937,-191,83,48,-42,18,700,112,396,0.000000,0.000000,0.000000
01/01/2000,00:09:45.129,-937,-191,83,48,-42,18,700,112,396,0.000000,0.000000,0.000000
01/01/2000,00:09:45.130,-937,-191,83,48,-42,18,700,112,396,0.000000,0.000000,0.000000
01/01/2000,00:09:45.130,-937,-191,83,48,-42,18,700,112,396,0.000000,0.000000,0.000000
01/01/2000,00:09:45.131,-937,-191,83,48,-42,18,700,112,396,0.000000,0.000000,0.000000
01/01/2000,00:09:45.131,-929,-203,86,48,-42,18,700,112,396,0.000000,0.000000,0.000000
01/01/2000,00:09:45.134,-931,-204,95,153,-37,35,682,135,402,0.000000,0.000000,0.000000
01/01/2000,00:09:45.143,-935,-183,106,223,-33,50,687,121,384,0.000000,0.000000,0.000000
01/01/2000,00:09:45.152,-938,-149,107,227,-26,51,694,120,393,0.000000,0.000000,0.000000
01/01/2000,00:09:45.162,-940,-119,94,168,-7,39,691,132,393,0.000000,0.000000,0.000000
01/01/2000,00:09:45.170,-940,-119,94,55,17,11,691,132,393,0.000000,0.000000,0.000000
01/01/2000,00:09:45.180,-945,-101,75,-83,57,-23,691,124,393,0.000000,0.000000,0.000000
01/01/2000,00:09:45.190,-957,-120,75,-221,98,-50,682,126,370,0.000000,0.000000,0.000000
01/01/2000,00:09:45.199,-973,-120,91,-343,131,-77,681,117,384,0.000000,0.000000,0.000000
01/01/2000,00:09:45.208,-992,-133,111,-409,160,-92,676,123,391,0.000000,0.000000,0.000000
01/01/2000,00:09:45.218,-1003,-152,137,-407,162,-96,702,127,396,0.000000,0.000000,0.000000
01/01/2000,00:09:45.227,-1003,-173,153,-345,139,-88,678,133,405,0.000000,0.000000,0.000000
01/01/2000,00:09:45.237,-1000,-191,147,-222,92,-69,688,117,408,0.000000,0.000000,0.000000
01/01/2000,00:09:45.246,-989,-199,117,-72,26,-38,681,139,399,0.000000,0.000000,0.000000
01/01/2000,00:09:45.255,-973,-187,71,40,-18,-10,681,139,399,0.000000,0.000000,0.000000
01/01/2000,00:09:45.264,-963,-161,29,92,-26,3,696,130,405,0.000000,0.000000,0.000000
01/01/2000,00:09:45.274,-958,-131,-1,91,6,5,684,124,394,0.000000,0.000000,0.000000
01/01/2000,00:09:45.283,-954,-104,-19,64,73,2,681,117,393,0.000000,0.000000,0.000000
01/01/2000,00:09:45.293,-942,-88,-11,31,117,-9,682,136,391,0.000000,0.000000,0.000000
01/01/2000,00:09:45.312,-913,-116,49,-76,154,-35,667,126,388,0.000000,0.000000,0.000000
01/01/2000,00:09:45.321,-911,-138,72,-123,147,-43,681,132,388,0.000000,0.000000,0.000000
01/01/2000,00:09:45.330,-919,-153,82,-135,138,-41,682,127,396,0.000000,0.000000,0.000000
01/01/2000,00:09:45.340,-947,-160,79,-118,140,-33,687,132,411,0.000000,0.000000,0.000000
01/01/2000,00:09:45.348,-987,-160,75,-88,163,-27,687,132,411,0.000000,0.000000,0.000000
01/01/2000,00:09:45.358,-1025,-149,77,-60,182,-26,678,136,403,0.000000,0.000000,0.000000
01/01/2000,00:09:45.368,-1049,-128,76,-39,175,-29,687,130,406,0.000000,0.000000,0.000000
01/01/2000,00:09:45.377,-1051,-110,68,-23,144,-34,678,138,405,0.000000,0.000000,0.000000
01/01/2000,00:09:45.386,-1034,-98,62,-15,92,-40,675,129,414,0.000000,0.000000,0.000000
01/01/2000,00:09:45.396,-1006,-98,51,-13,37,-52,693,136,412,0.000000,0.000000,0.000000
01/01/2000,00:09:45.405,-976,-108,33,-15,9,-65,682,121,412,0.000000,0.000000,0.000000
01/01/2000,00:09:45.418,-947,-125,20,-29,9,-77,688,124,423,0.000000,0.000000,0.000000
01/01/2000,00:09:45.424,-927,-151,7,-66,30,-88,676,127,394,0.000000,0.000000,0.000000
01/01/2000,00:09:45.433,-916,-181,-9,-105,60,-93,676,127,394,0.000000,0.000000,0.000000
01/01/2000,00:09:45.442,-908,-212,-28,-127,91,-87,679,130,417,0.000000,0.000000,0.000000
01/01/2000,00:09:45.452,-912,-236,-44,-131,124,-72,673,124,432,0.000000,0.000000,0.000000
01/01/2000,00:09:45.461,-928,-240,-52,-128,159,-55,678,126,412,0.000000,0.000000,0.000000
01/01/2000,00:09:45.471,-953,-227,-50,-128,159,-55,664,130,417,0.000000,0.000000,0.000000
01/01/2000,00:09:45.480,-982,-207,-37,-127,193,-39,664,136,429,0.000000,0.000000,0.000000
01/01/2000,00:09:45.490,-1005,-186,-19,-125,217,-27,666,133,408,0.000000,0.000000,0.000000
01/01/2000,00:09:45.499,-1018,-162,-2,-122,225,-18,675,132,408,0.000000,0.000000,0.000000
01/01/2000,00:09:45.508,-1020,-124,11,-127,216,-10,664,132,429,0.000000,0.000000,0.000000
01/01/2000,00:09:45.517,-1020,-124,11,-151,195,-13,664,123,414,0.000000,0.000000,0.000000
01/01/2000,00:09:45.526,-1017,-80,21,-186,169,-23,664,123,414,0.000000,0.000000,0.000000
01/01/2000,00:09:45.536,-1011,-54,25,-210,144,-37,666,120,430,0.000000,0.000000,0.000000
01/01/2000,00:09:45.546,-1002,-49,27,-207,117,-49,673,150,441,0.000000,0.000000,0.000000
01/01/2000,00:09:45.555,-994,-57,27,-174,91,-60,681,139,435,0.000000,0.000000,0.000000
01/01/2000,00:09:45.564,-985,-75,23,-116,64,-58,678,123,405,0.000000,0.000000,0.000000
01/01/2000,00:09:45.577,-980,-100,8,-43,44,-51,672,130,429,0.000000,0.000000,0.000000
01/01/2000,00:09:45.583,-977,-127,-11,30,25,-40,669,136,438,0.000000,0.000000,0.000000
01/01/2000,00:09:45.593,-977,-148,-33,83,15,-30,658,142,426,0.000000,0.000000,0.000000
01/01/2000,00:09:45.602,-980,-158,-49,101,15,-22,672,117,429,0.000000,0.000000,0.000000
01/01/2000,00:09:45.611,-977,-164,-51,87,25,-17,664,112,433,0.000000,0.000000,0.000000
01/01/2000,00:09:45.620,-975,-168,-43,51,39,-17,664,112,433,0.000000,0.000000,0.000000
01/01/2000,00:09:45.629,-975,-169,-29,7,48,-19,663,136,424,0.000000,0.000000,0.000000
01/01/2000,00:09:45.639,-971,-168,-14,-29,49,-18,667,145,435,0.000000,0.000000,0.000000
01/01/2000,00:09:45.649,-967,-167,-8,-52,49,-16,663,127,429,0.000000,0.000000,0.000000
01/01/2000,00:09:45.658,-965,-166,-11,-62,46,-11,681,141,435,0.000000,0.000000,0.000000
01/01/2000,00:09:45.668,-967,-169,-20,-67,48,-5,682,136,429,0.000000,0.000000,0.000000
01/01/2000,00:09:45.677,-971,-174,-35,-64,54,3,670,151,424,0.000000,0.000000,0.000000
01/01/2000,00:09:45.686,-979,-173,-45,-55,69,9,672,120,447,0.000000,0.000000,0.000000
01/01/2000,00:09:45.696,-986,-169,-46,-48,76,16,661,138,436,0.000000,0.000000,0.000000
01/01/2000,00:09:45.705,-985,-161,-42,-52,77,21,666,120,438,0.000000,0.000000,0.000000
01/01/2000,00:09:45.714,-983,-147,-37,-63,70,21,666,120,438,0.000000,0.000000,0.000000
01/01/2000,00:09:45.723,-981,-131,-33,-84,65,17,666,135,436,0.000000,0.000000,0.000000
01/01/2000,00:09:45.733,-981,-122,-24,-112,65,9,663,124,423,0.000000,0.000000,0.000000
01/01/2000,00:09:45.742,-980,-123,-17,-130,64,0,675,136,427,0.000000,0.000000,0.000000
01/01/2000,00:09:45.752,-980,-131,-16,-124,62,-5,661,132,421,0.000000,0.000000,0.000000
01/01/2000,00:09:45.761,-989,-140,-21,-102,67,-6,685,124,447,0.000000,0.000000,0.000000
01/01/2000,00:09:45.771,-1008,-144,-29,-73,76,-6,666,141,426,0.000000,0.000000,0.000000
01/01/2000,00:09:45.780,-1019,-139,-42,-42,73,-6,661,126,429,0.000000,0.000000,0.000000
01/01/2000,00:09:45.789,-1016,-130,-56,-42,73,-6,679,139,438,0.000000,0.000000,0.000000
01/01/2000,00:09:45.799,-1008,-125,-63,-13,62,-9,676,147,429,0.000000,0.000000,0.000000
01/01/2000,00:09:45.807,-996,-123,-67,1,45,-19,676,147,429,0.000000,0.000000,0.000000
01/01/2000,00:09:45.817,-982,-113,-69,1,45,-19,660,133,444,0.000000,0.000000,0.000000
01/01/2000,00:09:45.827,-974,-97,-63,-18,53,-25,672,139,450,0.000000,0.000000,0.000000
01/01/2000,00:09:45.836,-969,-78,-49,-44,67,-34,666,132,453,0.000000,0.000000,0.000000
01/01/2000,00:09:45.846,-963,-60,-32,-72,78,-43,651,132,451,0.000000,0.000000,0.000000
01/01/2000,00:09:45.855,-959,-43,-21,-97,81,-57,666,144,457,0.000000,0.000000,0.000000
01/01/2000,00:09:45.864,-964,-24,-14,-109,82,-67,685,142,451,0.000000,0.000000,0.000000
01/01/2000,00:09:45.874,-970,-5,-12,-115,69,-76,666,121,445,0.000000,0.000000,0.000000
01/01/2000,00:09:45.883,-970,15,-12,-135,47,-85,660,136,460,0.000000,0.000000,0.000000
01/01/2000,00:09:45.892,-975,15,-15,-184,41,-100,661,120,456,0.000000,0.000000,0.000000
01/01/2000,00:09:45.901,-983,38,-15,-254,58,-117,661,120,456,0.000000,0.000000,0.000000
01/01/2000,00:09:45.911,-988,57,-17,-316,80,-134,652,129,459,0.000000,0.000000,0.000000
01/01/2000,00:09:45.920,-987,66,-27,-341,84,-151,661,123,444,0.000000,0.000000,0.000000
01/01/2000,00:09:45.930,-979,72,-40,-318,57,-174,660,126,451,0.000000,0.000000,0.000000
01/01/2000,00:09:45.939,-967,79,-55,-254,6,-198,664,120,453,0.000000,0.000000,0.000000
01/01/2000,00:09:45.949,-953,85,-72,-171,-24,-220,663,141,475,0.000000,0.000000,0.000000
01/01/2000,00:09:45.967,-922,82,-68,45,44,-196,660,130,463,0.000000,0.000000,0.000000
01/01/2000,00:09:45.977,-915,89,-53,152,113,-151,664,139,453,0.000000,0.000000,0.000000
01/01/2000,00:09:45.986,-902,80,-40,233,151,-127,657,156,450,0.000000,0.000000,0.000000
01/01/2000,00:09:45.995,-888,65,-33,245,177,-133,657,156,450,0.000000,0.000000,0.000000
01/01/2000,00:09:46.004,-870,36,-22,149,193,-188,633,138,442,0.000000,0.000000,0.000000
01/01/2000,00:09:46.014,-846,-11,-26,-56,207,-277,649,142,433,0.000000,0.000000,0.000000
01/01/2000,00:09:46.024,-843,-58,-54,-332,257,-391,666,144,457,0.000000,0.000000,0.000000
01/01/2000,00:09:46.033,-907,-100,-81,-556,312,-514,621,144,483,0.000000,0.000000,0.000000
01/01/2000,00:09:46.042,-1028,-145,-101,-638,320,-625,646,156,466,0.000000,0.000000,0.000000
01/01/2000,00:09:46.052,-1158,-198,-114,-598,278,-712,634,145,468,0.000000,0.000000,0.000000
01/01/2000,00:09:46.061,-1257,-249,-126,-475,203,-778,633,148,456,0.000000,0.000000,0.000000
01/01/2000,00:09:46.073,-1298,-313,-145,-316,134,-816,646,151,475,0.000000,0.000000,0.000000
01/01/2000,00:09:46.080,-1280,-400,-142,-158,133,-781,643,157,489,0.000000,0.000000,0.000000
01/01/2000,00:09:46.089,-1224,-504,-89,20,169,-672,643,157,489,0.000000,0.000000,0.000000
01/01/2000,00:09:46.098,-1135,-587,8,232,137,-530,622,162,490,24.500000,56.299999,981.580017
01/01/2000,00:09:46.108,-981,-576,129,428,15,-369,622,162,490,24.500000,56.299999,981.580017
01/01/2000,00:09:46.117,-828,-407,221,401,-64,-181,648,180,480,24.500000,56.299999,981.580017
01/01/2000,00:09:46.127,-781,-165,241,142,1,-68,630,187,495,24.500000,56.299999,981.580017
01/01/2000,00:09:46.136,-784,-29,221,-86,31,-21,648,177,471,24.500000,56.299999,981.580017
01/01/2000,00:09:46.145,-788,-5,160,-86,31,-21,640,175,474,24.500000,56.299999,981.580017
01/01/2000,00:09:46.155,-811,-3,54,-159,10,46,639,181,469,24.500000,56.299999,981.580017
01/01/2000,00:09:46.164,-847,-17,-29,-68,14,108,651,165,487,24.500000,56.299999,981.580017
01/01/2000,00:09:46.176,-897,-48,-71,102,54,135,651,165,487,24.500000,56.299999,981.580017
01/01/2000,00:09:46.183,-940,-84,-119,286,11,146,625,175,472,24.500000,56.299999,981.580017
01/01/2000,00:09:46.192,-974,-117,-156,524,-80,89,639,184,456,24.500000,56.299999,981.580017
01/01/2000,00:09:46.202,-1013,-147,-130,744,-78,64,640,187,478,24.500000,56.299999,981.580017
01/01/2000,00:09:46.211,-1036,-174,-66,867,-5,36,637,193,469,24.500000,56.299999,981.580017
01/01/2000,00:09:46.220,-1038,-194,1,834,99,4,639,192,462,24.500000,56.299999,981.580017
01/01/2000,00:09:46.230,-1038,-225,1,717,186,-42,640,202,469,24.500000,56.299999,981.580017
01/01/2000,00:09:46.239,-1006,-225,56,597,203,-82,636,198,466,24.500000,56.299999,981.580017
01/01/2000,00:09:46.248,-954,-280,77,500,188,-96,610,184,472,24.500000,56.299999,981.580017
01/01/2000,00:09:46.257,-907,-320,66,432,196,-80,610,184,472,24.500000,56.299999,981.580017
01/01/2000,00:09:46.267,-877,-324,69,388,238,-44,639,201,472,24.500000,56.299999,981.580017
01/01/2000,00:09:46.280,-874,-294,117,347,275,3,627,223,477,24.500000,56.299999,981.580017
01/01/2000,00:09:46.286,-893,-230,183,278,277,50,634,195,484,24.500000,56.299999,981.580017
01/01/2000,00:09:46.295,-915,-155,221,174,239,82,618,208,489,24.500000,56.299999,981.580017
01/01/2000,00:09:46.305,-932,-101,202,91,173,96,615,198,475,24.500000,56.299999,981.580017
01/01/2000,00:09:46.314,-948,-90,136,85,112,97,642,205,481,24.500000,56.299999,981.580017
01/01/2000,00:09:46.323,-964,-110,67,155,62,92,637,199,487,24.500000,56.299999,981.580017
01/01/2000,00:09:46.333,-960,-136,16,279,25,84,631,214,501,24.500000,56.299999,981.580017
01/01/2000,00:09:46.342,-948,-155,-25,417,21,77,628,204,472,24.500000,56.299999,981.580017
01/01/2000,00:09:46.351,-952,-166,-51,543,51,70,628,204,472,24.500000,56.299999,981.580017
01/01/2000,00:09:46.360,-959,-173,-52,626,100,57,648,190,480,24.500000,56.299999,981.580017
01/01/2000,00:09:46.370,-968,-168,-42,664,135,43,624,202,475,24.500000,56.299999,981.580017
01/01/2000,00:09:46.380,-985,-150,-38,702,128,39,622,210,463,24.500000,56.299999,981.580017
01/01/2000,00:09:46.389,-1005,-122,-51,787,87,51,645,210,481,24.500000,56.299999,981.580017
01/01/2000,00:09:46.398,-1026,-92,-70,908,48,65,651,214,468,24.500000,56.299999,981.580017
01/01/2000,00:09:46.408,-1051,-73,-79,982,13,70,634,213,472,24.500000,56.299999,981.580017
01/01/2000,00:09:46.417,-1089,-70,-79,973,96,70,631,199,471,24.500000,56.299999,981.580017
01/01/2000,00:09:46.426,-1156,-81,-19,861,304,63,637,204,447,24.500000,56.299999,981.580017
01/01/2000,00:09:46.436,-1248,-109,109,675,458,35,645,228,480,24.500000,56.299999,981.580017
01/01/2000,00:09:46.445,-1328,-155,245,521,468,-21,645,228,480,24.500000,56.299999,981.580017
01/01/2000,00:09:46.454,-1383,-234,333,502,360,-62,628,228,480,24.500000,56.299999,981.580017
01/01/2000,00:09:46.464,-1377,-406,311,645,62,-123,618,222,456,24.500000,56.299999,981.580017
01/01/2000,00:09:46.473,-1302,-643,185,815,-254,-151,619,214,460,24.500000,56.299999,981.580017
01/01/2000,00:09:46.486,-1251,-834,87,839,-420,-128,622,225,483,24.500000,56.299999,981.580017
01/01/2000,00:09:46.492,-1273,-948,61,699,-458,-56,609,229,459,24.500000,56.299999,981.580017
01/01/2000,00:09:46.501,-1324,-1038,58,459,-389,16,624,234,453,24.500000,56.299999,981.580017
01/01/2000,00:09:46.511,-1349,-1107,75,459,-389,16,637,235,460,24.500000,56.299999,981.580017
01/01/2000,00:09:46.520,-1286,-1141,102,180,-313,52,630,220,442,24.500000,56.299999,981.580017
01/01/2000,00:09:46.529,-1216,-1133,154,-62,-307,70,618,228,441,24.500000,56.299999,981.580017
01/01/2000,00:09:46.538,-1183,-1016,174,-371,-335,125,618,228,441,24.500000,56.299999,981.580017
01/01/2000,00:09:46.548,-1198,-773,151,-710,-426,218,627,232,468,24.500000,56.299999,981.580017
01/01/2000,00:09:46.558,-1279,-517,143,-1008,-490,368,645,217,447,24.500000,56.299999,981.580017
01/01/2000,00:09:46.567,-1308,-350,134,-1288,-586,442,630,220,448,24.500000,56.299999,981.580017
01/01/2000,00:09:46.576,-1308,-256,71,-1524,-710,475,655,234,441,24.500000,56.299999,981.580017
01/01/2000,00:09:46.595,-1270,-169,76,-1646,-866,585,637,208,457,24.500000,56.299999,981.580017
01/01/2000,00:09:46.604,-1222,-45,228,-1519,-970,621,645,190,441,24.500000,56.299999,981.580017
01/01/2000,00:09:46.614,-1180,111,404,-1455,-1235,597,655,189,442,24.500000,56.299999,981.580017
01/01/2000,00:09:46.623,-1177,296,277,-1524,-1284,487,669,183,439,24.500000,56.299999,981.580017
01/01/2000,00:09:46.632,-1105,408,-51,-1567,-943,299,669,183,439,24.500000,56.299999,981.580017
01/01/2000,00:09:46.642,-991,480,-278,-1607,-361,143,657,160,411,24.500000,56.299999,981.580017
01/01/2000,00:09:46.651,-971,596,-305,-1600,186,-123,678,171,429,24.500000,56.299999,981.580017
01/01/2000,00:09:46.661,-922,624,-341,-1347,452,-190,657,160,436,24.500000,56.299999,981.580017
01/01/2000,00:09:46.670,-949,617,-425,-676,516,-108,672,157,439,24.500000,56.299999,981.580017
01/01/2000,00:09:46.679,-1093,471,-255,72,45,-68,664,157,450,24.500000,56.299999,981.580017
01/01/2000,00:09:46.689,-1168,138,77,687,-977,264,669,172,450,24.500000,56.299999,981.580017
01/01/2000,00:09:46.698,-1175,-225,391,740,-1866,821,664,177,442,24.500000,56.299999,981.580017
01/01/2000,00:09:46.707,-1229,-397,407,454,-2264,1351,675,157,406,24.500000,56.299999,981.580017
01/01/2000,00:09:46.716,-1316,-363,184,119,-1934,1241,675,157,406,24.500000,56.299999,981.580017
01/01/2000,00:09:46.726,-1165,-428,60,-21,-1432,1015,675,142,409,24.500000,56.299999,981.580017
01/01/2000,00:09:46.736,-913,-391,-25,125,-1281,1024,690,133,400,24.500000,56.299999,981.580017
01/01/2000,00:09:46.745,-753,-150,-78,277,-1158,995,706,124,367,24.500000,56.299999,981.580017
01/01/2000,00:09:46.754,-612,50,-8,236,-1052,853,706,124,367,24.500000,56.299999,981.580017
01/01/2000,00:09:46.764,-485,103,83,47,-1050,740,690,100,357,24.500000,56.299999,981.580017
01/01/2000,00:09:46.773,-371,64,102,-118,-988,706,700,115,366,24.500000,56.299999,981.580017
01/01/2000,00:09:46.782,-321,6,109,-286,-864,706,708,94,340,24.500000,56.299999,981.580017
01/01/2000,00:09:46.795,-318,-46,84,-448,-704,706,696,84,327,24.500000,56.299999,981.580017
01/01/2000,00:09:46.801,-328,-62,31,-509,-578,652,699,84,336,24.500000,56.299999,981.580017
01/01/2000,00:09:46.810,-331,-58,-1,-489,-512,577,699,84,336,24.500000,56.299999,981.580017
01/01/2000,00:09:46.819,-335,-44,-12,-446,-465,521,717,67,306,24.500000,56.299999,981.580017
01/01/2000,00:09:46.829,-345,-16,-17,-451,-396,469,711,76,324,24.500000,56.299999,981.580017
01/01/2000,00:09:46.839,-348,1,-26,-512,-236,377,703,69,331,24.500000,56.299999,981.580017
01/01/2000,00:09:46.848,-376,12,-12,-561,-32,230,703,64,315,24.500000,56.299999,981.580017
01/01/2000,00:09:46.857,-446,11,52,-561,-32,230,706,60,319,24.500000,56.299999,981.580017
01/01/2000,00:09:46.867,-539,-12,194,-585,188,56,708,54,310,24.500000,56.299999,981.580017
01/01/2000,00:09:46.876,-620,-67,388,-673,444,-140,715,73,330,24.500000,56.299999,981.580017
01/01/2000,00:09:46.885,-671,-149,546,-909,602,-337,705,67,327,24.500000,56.299999,981.580017
01/01/2000,00:09:46.898,-721,-227,656,-1192,559,-464,703,73,340,24.500000,56.299999,981.580017
01/01/2000,00:09:46.904,-721,-227,656,-1353,423,-509,703,73,340,24.500000,56.299999,981.580017
01/01/2000,00:09:46.913,-832,-310,781,-1317,305,-526,691,79,342,24.500000,56.299999,981.580017
01/01/2000,00:09:46.923,-1025,-806,691,-991,363,-509,706,87,339,24.500000,56.299999,981.580017
01/01/2000,00:09:46.932,-1308,-806,691,-516,746,-235,699,87,348,24.500000,56.299999,981.580017
01/01/2000,00:09:46.942,-1736,-1186,512,31,914,276,708,99,342,24.500000,56.299999,981.580017
01/01/2000,00:09:46.951,-2198,-1245,518,505,806,655,687,81,343,24.500000,56.299999,981.580017
01/01/2000,00:09:46.960,-2302,-1035,848,537,307,763,693,69,360,24.500000,56.299999,981.580017
01/01/2000,00:09:46.970,-2076,-622,1035,402,-316,855,699,58,342,24.500000,56.299999,981.580017
01/01/2000,00:09:46.979,-1820,-26,727,383,-473,747,702,46,351,24.500000,56.299999,981.580017
01/01/2000,00:09:46.989,-1655,392,304,405,-167,322,688,76,357,24.500000,56.299999,981.580017
01/01/2000,00:09:46.997,-1555,458,-26,467,242,-174,688,76,357,24.500000,56.299999,981.580017
01/01/2000,00:09:47.007,-1344,437,-235,549,426,-505,702,61,351,24.500000,56.299999,981.580017
01/01/2000,00:09:47.017,-992,531,-219,718,251,-697,700,61,357,24.500000,56.299999,981.580017
01/01/2000,00:09:47.026,-609,645,-212,727,205,-773,696,90,360,24.500000,56.299999,981.580017
01/01/2000,00:09:47.035,-429,737,-314,578,622,-738,691,70,367,24.500000,56.299999,981.580017
01/01/2000,00:09:47.045,-447,774,-406,535,1054,-701,699,90,367,24.500000,56.299999,981.580017
01/01/2000,00:09:47.054,-491,705,-369,576,1190,-646,691,99,387,24.500000,56.299999,981.580017
01/01/2000,00:09:47.063,-505,571,-284,470,1092,-651,693,85,393,24.500000,56.299999,981.580017
01/01/2000,00:09:47.073,-462,437,-293,151,1054,-752,673,88,406,24.500000,56.299999,981.580017
01/01/2000,00:09:47.082,-454,307,-387,-216,1363,-908,694,93,417,24.500000,56.299999,981.580017
01/01/2000,00:09:47.091,-540,152,-417,-422,1540,-988,694,93,417,24.500000,56.299999,981.580017
01/01/2000,00:09:47.101,-705,-7,-335,-594,1264,-988,679,124,453,24.500000,56.299999,981.580017
01/01/2000,00:09:47.110,-1003,-98,-273,-808,515,-945,679,124,453,24.500000,56.299999,981.580017
01/01/2000,00:09:47.120,-1347,-89,-326,-807,-369,-944,673,124,429,24.500000,56.299999,981.580017
01/01/2000,00:09:47.129,-1595,-188,-487,-259,-516,-882,675,120,445,24.500000,56.299999,981.580017
01/01/2000,00:09:47.138,-1683,-408,-448,631,270,-695,682,127,424,24.500000,56.700001,981.640015
01/01/2000,00:09:47.148,-1568,-544,-88,1528,910,-550,667,165,462,24.500000,56.700001,981.640015
01/01/2000,00:09:47.157,-1282,-605,346,1985,924,-471,661,162,439,24.500000,56.700001,981.640015
01/01/2000,00:09:47.166,-947,-583,653,1738,649,-404,661,162,439,24.500000,56.700001,981.640015
01/01/2000,00:09:47.175,-746,-448,750,920,375,-310,666,154,454,24.500000,56.700001,981.640015
01/01/2000,00:09:47.185,-710,-305,619,5,164,-162,657,157,448,24.500000,56.700001,981.640015
01/01/2000,00:09:47.195,-706,-265,437,-699,19,-8,661,171,450,24.500000,56.700001,981.640015
01/01/2000,00:09:47.213,-671,-270,119,-1158,-143,111,670,160,460,24.500000,56.700001,981.640015
01/01/2000,00:09:47.223,-645,-162,-124,-1388,-267,158,646,151,462,24.500000,56.700001,981.640015
01/01/2000,00:09:47.232,-571,-46,-482,-1207,-329,168,652,166,454,24.500000,56.700001,981.640015
01/01/2000,00:09:47.242,-595,150,-1005,-585,-144,157,649,136,471,24.500000,56.700001,981.640015
01/01/2000,00:09:47.251,-598,195,-1284,703,314,-10,660,150,459,24.500000,56.700001,981.640015
01/01/2000,00:09:47.260,-598,195,-1284,2418,634,-86,660,150,459,24.500000,56.700001,981.640015
01/01/2000,00:09:47.269,-705,80,-1011,2866,556,43,655,150,460,24.500000,56.700001,981.640015
01/01/2000,00:09:47.279,-977,58,-527,2866,143,-81,646,178,453,24.500000,56.700001,981.640015
01/01/2000,00:09:47.288,-1105,22,-171,2866,5,-318,660,198,439,24.500000,56.700001,981.640015
01/01/2000,00:09:47.298,-971,60,650,1289,2150,-367,649,199,447,24.500000,56.700001,981.640015
01/01/2000,00:09:47.307,-1296,302,2032,-1929,2866,-405,621,198,496,24.500000,56.700001,981.640015
01/01/2000,00:09:47.316,-1771,341,1769,-1766,991,-681,630,181,507,24.500000,56.700001,981.640015
01/01/2000,00:09:47.326,-1560,-33,310,493,-650,-454,610,180,516,24.500000,56.700001,981.640015
01/01/2000,00:09:47.335,-1191,-428,-221,1873,-1458,-188,616,204,490,24.500000,56.700001,981.640015
01/01/2000,00:09:47.345,-907,-629,-251,2068,-1822,60,627,220,457,24.500000,56.700001,981.640015
01/01/2000,00:09:47.353,-857,-678,-270,1786,-1743,134,627,220,457,24.500000,56.700001,981.640015
01/01/2000,00:09:47.363,-970,-784,-285,1392,-1206,4,649,228,453,24.500000,56.700001,981.640015
01/01/2000,00:09:47.373,-1075,-960,-260,870,-100,-183,645,228,444,24.500000,56.700001,981.640015
01/01/2000,00:09:47.382,-1171,-1119,-132,356,1033,-232,655,219,450,24.500000,56.700001,981.640015
01/01/2000,00:09:47.391,-1261,-1229,71,216,1590,-143,631,220,441,24.500000,56.700001,981.640015
01/01/2000,00:09:47.401,-1337,-1201,519,378,1176,55,636,214,454,24.500000,56.700001,981.640015
01/01/2000,00:09:47.410,-1485,-864,855,308,21,271,627,231,484,24.500000,56.700001,981.640015
01/01/2000,00:09:47.420,-1478,-557,628,122,-864,242,630,229,459,24.500000,56.700001,981.640015
01/01/2000,00:09:47.429,-1260,-574,259,-62,-1288,255,633,219,450,24.500000,56.700001,981.640015
01/01/2000,00:09:47.438,-1077,-676,89,-238,-1201,279,633,219,450,24.500000,56.700001,981.640015
01/01/2000,00:09:47.447,-949,-726,78,-516,-1076,333,631,228,453,24.500000,56.700001,981.640015
01/01/2000,00:09:47.457,-885,-692,82,-942,-1111,441,630,223,451,24.500000,56.700001,981.640015
01/01/2000,00:09:47.466,-853,-595,22,-1373,-1066,537,642,207,450,24.500000,56.700001,981.640015
01/01/2000,00:09:47.476,-830,-508,-59,-1692,-743,658,636,192,438,24.500000,56.700001,981.640015
01/01/2000,00:09:47.485,-809,-426,-78,-1722,-213,764,648,198,439,24.500000,56.700001,981.640015
01/01/2000,00:09:47.494,-897,-326,152,-1393,93,931,658,201,445,24.500000,56.700001,981.640015
01/01/2000,00:09:47.507,-1191,-97,398,-1276,-152,1085,669,184,439,24.500000,56.700001,981.640015
01/01/2000,00:09:47.513,-1310,93,317,-1536,-739,1070,646,178,462,24.500000,56.700001,981.640015
01/01/2000,00:09:47.522,-1165,97,-69,-1646,-1203,1060,646,178,462,24.500000,56.700001,981.640015
01/01/2000,00:09:47.531,-1133,101,-455,-1415,-1107,1175,675,142,429,24.500000,56.700001,981.640015
01/01/2000,00:09:47.541,-1363,221,-562,-1024,-639,1214,663,142,438,24.500000,56.700001,981.640015
01/01/2000,00:09:47.551,-1803,491,-439,-1024,-639,1214,670,136,417,24.500000,56.700001,981.640015
01/01/2000,00:09:47.560,-2288,821,62,-443,-290,896,673,129,408,24.500000,56.700001,981.640015
01/01/2000,00:09:47.569,-2386,927,445,-65,-379,266,670,127,421,24.500000,56.700001,981.640015
01/01/2000,00:09:47.579,-2023,738,375,62,-789,-139,672,103,402,24.500000,56.700001,981.640015
01/01/2000,00:09:47.588,-1600,616,153,510,-995,-9,673,108,397,24.500000,56.700001,981.640015
01/01/2000,00:09:47.598,-1190,461,118,1530,-1299,50,663,103,400,24.500000,56.700001,981.640015
01/01/2000,00:09:47.606,-1190,461,118,2363,-1281,-88,681,102,372,24.500000,56.700001,981.640015
01/01/2000,00:09:47.616,-791,136,227,1659,-661,71,681,102,372,24.500000,56.700001,981.640015
01/01/2000,00:09:47.625,-578,-130,211,80,21,339,667,138,367,24.500000,56.700001,981.640015
01/01/2000,00:09:47.635,-598,-239,138,-1353,122,461,682,135,391,24.500000,56.700001,981.640015
01/01/2000,00:09:47.644,-549,-320,-42,-1738,-237,377,678,118,378,24.500000,56.700001,981.640015
01/01/2000,00:09:47.657,-444,-456,-163,-1186,-871,532,684,115,384,24.500000,56.700001,981.640015
01/01/2000,00:09:47.663,-503,-500,-114,-483,-1255,806,693,109,361,24.500000,56.700001,981.640015
01/01/2000,00:09:47.672,-627,-373,43,-183,-1199,857,682,100,363,24.500000,56.700001,981.640015
01/01/2000,00:09:47.682,-613,-199,188,-406,-1011,703,694,99,343,24.500000,56.700001,981.640015
01/01/2000,00:09:47.691,-481,-116,196,-773,-848,568,675,88,325,24.500000,56.700001,981.640015
01/01/2000,00:09:47.701,-385,-104,132,-1033,-729,514,682,96,330,24.500000,56.700001,981.640015
01/01/2000,00:09:47.709,-357,-137,103,-1119,-636,541,682,96,330,24.500000,56.700001,981.640015
01/01/2000,00:09:47.719,-403,-168,112,-1115,-569,589,691,76,340,24.500000,56.700001,981.640015
01/01/2000,00:09:47.729,-459,-202,144,-1105,-547,613,700,64,333,24.500000,56.700001,981.640015
01/01/2000,00:09:47.738,-460,-228,177,-1136,-589,574,669,58,321,24.500000,56.700001,981.640015
01/01/2000,00:09:47.747,-415,-234,159,-1175,-615,457,700,69,313,24.500000,56.700001,981.640015
01/01/2000,00:09:47.757,-350,-220,91,-1168,-509,289,694,51,316,24.500000,56.700001,981.640015
01/01/2000,00:09:47.766,-314,-182,32,-1068,-217,104,690,57,303,24.500000,56.700001,981.640015
01/01/2000,00:09:47.776,-358,-119,23,-850,232,-128,688,51,318,24.500000,56.700001,981.640015
01/01/2000,00:09:47.785,-457,-58,88,-541,763,-366,681,45,313,24.500000,56.700001,981.640015
01/01/2000,00:09:47.794,-546,-33,249,-268,1208,-510,678,54,318,24.500000,56.700001,981.640015
01/01/2000,00:09:47.837,-662,-9,536,-217,1346,-548,678,54,318,24.500000,56.700001,981.640015
01/01/2000,00:09:47.841,-1960,-977,511,476,1049,381,676,81,360,24.500000,56.700001,981.640015
01/01/2000,00:09:47.850,-2175,-1048,859,117,740,513,670,64,366,24.500000,56.700001,981.640015
01/01/2000,00:09:47.860,-1934,-829,986,-458,14,740,682,61,372,24.500000,56.700001,981.640015
01/01/2000,00:09:47.869,-1483,-371,762,-632,-577,986,666,61,363,24.500000,56.700001,981.640015
01/01/2000,00:09:47.879,-1081,4,625,-632,-577,986,681,46,366,24.500000,56.700001,981.640015
01/01/2000,00:09:47.888,-830,222,414,-438,-768,976,670,36,369,24.500000,56.700001,981.640015
01/01/2000,00:09:47.897,-883,262,23,-270,-519,746,670,36,369,24.500000,56.700001,981.640015
01/01/2000,00:09:47.906,-1098,111,-238,-56,145,331,675,45,361,24.500000,56.700001,981.640015
01/01/2000,00:09:47.916,-1202,103,-403,234,838,-239,684,13,352,24.500000,56.700001,981.640015
01/01/2000,00:09:47.925,-1167,183,-453,692,1055,-849,669,34,349,24.500000,56.700001,981.640015
01/01/2000,00:09:47.935,-1162,206,-353,1133,1177,-1337,672,69,406,24.500000,56.700001,981.640015
01/01/2000,00:09:47.944,-1213,258,-362,1171,1251,-1427,669,64,394,24.500000,56.700001,981.640015
01/01/2000,00:09:47.954,-1248,372,-352,1028,1231,-1158,669,85,409,24.500000,56.700001,981.640015
01/01/2000,00:09:47.963,-1248,574,-322,828,1000,-847,675,91,408,24.500000,56.700001,981.640015
01/01/2000,00:09:47.972,-1167,574,-322,338,789,-791,672,87,420,24.500000,56.700001,981.640015
01/01/2000,00:09:47.982,-1027,740,-263,-261,704,-880,678,94,421,24.500000,56.700001,981.640015
01/01/2000,00:09:47.990,-897,708,-150,-739,476,-989,678,94,421,24.500000,56.700001,981.640015
01/01/2000,00:09:48.000,-833,563,-231,-917,311,-1059,667,87,438,24.500000,56.700001,981.640015
01/01/2000,00:09:48.010,-840,351,-369,-777,352,-1115,664,99,412,24.500000,56.700001,981.640015
01/01/2000,00:09:48.019,-812,123,-408,-646,393,-1022,660,112,438,24.500000,56.700001,981.640015
01/01/2000,00:09:48.028,-852,2,-386,-617,158,-853,651,120,414,24.500000,56.700001,981.640015
01/01/2000,00:09:48.038,-962,-59,-343,-706,-350,-726,669,138,438,24.500000,56.700001,981.640015
01/01/2000,00:09:48.047,-1013,-166,-343,-628,-389,-725,651,120,427,24.500000,56.700001,981.640015
01/01/2000,00:09:48.057,-1008,-294,-291,264,454,-891,657,135,432,24.500000,56.700001,981.640015
01/01/2000,00:09:48.066,-986,-413,-71,1472,1219,-934,642,130,442,24.500000,56.700001,981.640015
01/01/2000,00:09:48.075,-897,-512,187,2058,1417,-676,636,157,430,24.500000,56.700001,981.640015
01/01/2000,00:09:48.084,-787,-531,300,2048,1294,-170,636,157,430,24.500000,56.700001,981.640015
01/01/2000,00:09:48.093,-749,-457,291,1733,1065,184,636,160,457,24.500000,56.700001,981.640015
01/01/2000,00:09:48.103,-680,-330,134,1340,845,243,648,160,450,24.500000,56.700001,981.640015
01/01/2000,00:09:48.113,-615,-201,25,1058,649,90,627,154,469,24.500000,56.700001,981.640015
01/01/2000,00:09:48.122,-608,-155,62,620,511,-63,637,163,457,24.500000,56.700001,981.640015
01/01/2000,00:09:48.132,-671,-170,92,187,401,-96,616,171,477,24.500000,56.700001,981.640015
01/01/2000,00:09:48.141,-793,-163,72,-157,276,-47,615,183,484,24.500000,56.700001,981.640015
01/01/2000,00:09:48.150,-940,-109,-84,-123,48,-33,627,159,468,24.500000,56.700001,981.640015
01/01/2000,00:09:48.160,-1098,10,-327,426,-161,-142,630,160,478,24.500000,56.700001,981.640015
01/01/2000,00:09:48.169,-1154,73,-532,1400,6,-233,636,180,471,24.500000,56.700001,981.640015
01/01/2000,00:09:48.178,-1104,130,-529,2301,800,-216,636,180,471,24.500000,56.700001,981.640015
01/01/2000,00:09:48.188,-1014,249,-89,2580,2399,-154,610,202,478,24.500000,56.099998,981.539978
01/01/2000,00:09:48.197,-1049,327,997,2069,2863,-62,610,202,478,24.500000,56.099998,981.539978
01/01/2000,00:09:48.207,-1166,222,1519,1485,711,-137,598,192,486,24.500000,56.099998,981.539978
01/01/2000,00:09:48.216,-1100,-123,698,1529,-1020,-317,598,205,490,24.500000,56.099998,981.539978
01/01/2000,00:09:48.225,-935,-411,-87,1755,-1326,-232,597,210,496,24.500000,56.099998,981.539978
01/01/2000,00:09:48.235,-829,-506,-298,1662,-1095,-15,604,211,463,24.500000,56.099998,981.539978
01/01/2000,00:09:48.244,-816,-556,-303,1662,-1095,-15,598,220,465,24.500000,56.099998,981.539978
01/01/2000,00:09:48.253,-863,-651,-258,1367,-834,74,600,244,471,24.500000,56.099998,981.539978
01/01/2000,00:09:48.263,-919,-786,-236,886,-495,6,601,223,456,24.500000,56.099998,981.539978
01/01/2000,00:09:48.271,-1022,-937,-170,393,148,-161,601,223,456,24.500000,56.099998,981.539978
01/01/2000,00:09:48.281,-1194,-1092,131,259,1265,-351,619,229,444,24.500000,56.099998,981.539978
01/01/2000,00:09:48.291,-1503,-1103,750,439,2027,-336,592,231,466,24.500000,56.099998,981.539978
01/01/2000,00:09:48.300,-1703,-852,969,482,1605,-67,585,235,483,24.500000,56.099998,981.539978
01/01/2000,00:09:48.310,-1703,-605,586,236,159,74,607,225,484,24.500000,56.099998,981.539978
01/01/2000,00:09:48.319,-1515,-605,586,81,-796,73,606,240,460,24.500000,56.099998,981.539978
01/01/2000,00:09:48.328,-1222,-583,279,9,-1189,64,621,241,453,24.500000,56.099998,981.539978
01/01/2000,00:09:48.338,-1072,-675,112,-153,-1591,71,604,232,447,24.500000,56.099998,981.539978
01/01/2000,00:09:48.347,-992,-752,-24,-389,-1669,80,588,237,442,24.500000,56.099998,981.539978
01/01/2000,00:09:48.356,-922,-775,-45,-711,-1459,175,588,237,442,24.500000,56.099998,981.539978
01/01/2000,00:09:48.365,-894,-703,-20,-1178,-1309,392,615,229,442,24.500000,56.099998,981.539978
01/01/2000,00:09:48.375,-868,-583,-43,-1742,-1022,547,604,232,426,24.500000,56.099998,981.539978
01/01/2000,00:09:48.385,-827,-494,-77,-2258,-602,703,625,189,429,24.500000,56.099998,981.539978
01/01/2000,00:09:48.394,-822,-440,-119,-2580,-248,905,622,204,424,24.500000,56.099998,981.539978
01/01/2000,00:09:48.403,-879,-391,-231,-2512,201,1171,631,205,447,24.500000,56.099998,981.539978
01/01/2000,00:09:48.413,-1174,-166,0,-1984,386,1386,618,192,453,24.500000,56.099998,981.539978
01/01/2000,00:09:48.422,-1462,65,431,-1758,-428,1411,633,172,447,24.500000,56.099998,981.539978
01/01/2000,00:09:48.440,-1467,73,237,-1978,-1303,1494,621,163,445,24.500000,56.099998,981.539978
01/01/2000,00:09:48.449,-1930,260,-574,-1323,-1495,1314,625,139,453,24.500000,56.099998,981.539978
01/01/2000,00:09:48.459,-2313,481,-468,-876,-896,948,631,133,411,24.500000,56.099998,981.539978
01/01/2000,00:09:48.469,-2638,946,-48,-435,-533,291,639,123,423,24.500000,56.099998,981.539978
01/01/2000,00:09:48.478,-2473,1208,307,8,-919,-245,646,111,408,24.500000,56.099998,981.539978
01/01/2000,00:09:48.488,-1915,1197,212,539,-1307,-319,657,117,408,24.500000,56.099998,981.539978
01/01/2000,00:09:48.497,-1341,1051,-36,1866,-1616,-283,655,111,424,24.500000,56.099998,981.539978
01/01/2000,00:09:48.506,-847,640,157,2715,-1748,-159,660,141,382,24.500000,56.099998,981.539978
01/01/2000,00:09:48.516,-515,151,376,2156,-979,115,652,138,372,24.500000,56.099998,981.539978
01/01/2000,00:09:48.525,-426,-115,240,652,49,338,658,133,376,24.500000,56.099998,981.539978
01/01/2000,00:09:48.534,-498,-150,142,-491,204,392,646,129,385,24.500000,56.099998,981.539978
01/01/2000,00:09:48.543,-458,-209,40,-544,-317,415,646,129,385,24.500000,56.099998,981.539978
01/01/2000,00:09:48.553,-427,-331,-10,-115,-776,540,645,133,388,24.500000,56.099998,981.539978
01/01/2000,00:09:48.563,-487,-418,60,267,-924,707,652,123,367,24.500000,56.099998,981.539978
01/01/2000,00:09:48.572,-548,-413,148,350,-772,766,654,115,367,24.500000,56.099998,981.539978
01/01/2000,00:09:48.581,-509,-403,163,144,-520,770,660,99,354,24.500000,56.099998,981.539978
01/01/2000,00:09:48.594,-427,-397,143,144,-520,770,663,108,346,24.500000,56.099998,981.539978
01/01/2000,00:09:48.600,-379,-388,103,-221,-340,825,663,100,358,24.500000,56.099998,981.539978
01/01/2000,00:09:48.609,-384,-392,73,-591,-312,850,652,96,348,24.500000,56.099998,981.539978
01/01/2000,00:09:48.619,-397,-383,65,-870,-418,850,670,85,349,24.500000,56.099998,981.539978
01/01/2000,00:09:48.628,-356,-349,53,-1065,-612,804,667,67,351,24.500000,56.099998,981.539978
01/01/2000,00:09:48.637,-356,-349,53,-1229,-730,720,667,67,351,24.500000,56.099998,981.539978
01/01/2000,00:09:48.647,-230,-254,-19,-1364,-678,598,664,66,346,24.500000,56.099998,981.539978
01/01/2000,00:09:48.656,-230,-198,-89,-1440,-449,414,670,46,322,24.500000,56.099998,981.539978
01/01/2000,00:09:48.666,-225,-198,-89,-1385,-72,156,642,54,352,24.500000,56.099998,981.539978
01/01/2000,00:09:48.675,-266,-147,-101,-1200,416,-143,688,49,348,24.500000,56.099998,981.539978
01/01/2000,00:09:48.684,-330,-121,22,-1012,899,-453,670,60,366,24.500000,56.099998,981.539978
01/01/2000,00:09:48.694,-418,-87,289,-890,1146,-730,679,64,391,24.500000,56.099998,981.539978
01/01/2000,00:09:48.703,-536,-59,624,-942,1040,-868,669,54,375,24.500000,56.099998,981.539978
01/01/2000,00:09:48.712,-695,-100,896,-1109,764,-904,658,75,370,24.500000,56.099998,981.539978
01/01/2000,00:09:48.721,-962,-272,956,-1052,717,-815,658,75,370,24.500000,56.099998,981.539978
01/01/2000,00:09:48.731,-1479,-416,681,-532,1013,-594,669,69,402,24.500000,56.099998,981.539978
01/01/2000,00:09:48.741,-1971,-494,353,370,1261,-142,646,78,387,24.500000,56.099998,981.539978
01/01/2000,00:09:48.750,-2105,-647,544,424,955,499,646,81,442,24.500000,56.099998,981.539978
01/01/2000,00:09:48.759,-2095,-729,959,-213,198,1091,637,81,442,24.500000,56.099998,981.539978
01/01/2000,00:09:48.769,-2322,-327,1108,-57,-327,1365,655,57,399,24.500000,56.099998,981.539978
01/01/2000,00:09:48.778,-2359,63,859,626,-298,1284,640,61,436,24.500000,56.099998,981.539978
01/01/2000,00:09:48.787,-2022,15,305,1014,-403,1095,640,46,406,24.500000,56.099998,981.539978
01/01/2000,00:09:48.797,-1637,12,-252,875,-374,854,630,42,436,24.500000,56.099998,981.539978
01/01/2000,00:09:48.806,-1252,222,-648,836,163,223,642,34,417,24.500000,56.099998,981.539978
01/01/2000,00:09:48.815,-917,371,-384,826,546,-625,642,34,417,24.500000,56.099998,981.539978
01/01/2000,00:09:48.824,-574,341,79,528,277,-1108,655,24,436,24.500000,56.099998,981.539978
01/01/2000,00:09:48.834,-345,380,-116,257,325,-1169,634,55,448,24.500000,56.099998,981.539978
01/01/2000,00:09:48.844,-341,512,-552,264,744,-1009,625,54,454,24.500000,56.099998,981.539978
01/01/2000,00:09:48.853,-510,592,-660,349,1121,-935,637,64,472,24.500000,56.099998,981.539978
01/01/2000,00:09:48.862,-665,559,-515,277,1199,-987,628,84,469,24.500000,56.099998,981.539978
01/01/2000,00:09:48.872,-713,469,-335,139,1060,-1100,607,69,472,24.500000,56.099998,981.539978
01/01/2000,00:09:48.881,-775,347,-305,61,949,-1154,603,100,495,24.500000,56.099998,981.539978
01/01/2000,00:09:48.890,-883,260,-415,206,1074,-1217,610,99,511,24.500000,56.099998,981.539978
01/01/2000,00:09:48.900,-913,119,-419,182,1170,-1222,586,96,529,24.500000,56.099998,981.539978
01/01/2000,00:09:48.909,-960,-58,-312,-294,870,-1078,586,96,529,24.500000,56.099998,981.539978
01/01/2000,00:09:48.918,-1114,-137,-264,-954,226,-915,580,100,526,24.500000,56.099998,981.539978
01/01/2000,00:09:48.928,-1229,-170,-342,-1429,-356,-849,580,103,543,24.500000,56.099998,981.539978
01/01/2000,00:09:48.937,-1239,-232,-412,-1429,-356,-849,586,106,538,24.500000,56.099998,981.539978
01/01/2000,00:09:48.947,-1225,-469,-383,-1624,-607,-727,571,102,556,24.500000,56.099998,981.539978
01/01/2000,00:09:48.956,-1221,-663,0,-448,-21,-402,571,102,556,24.500000,56.099998,981.539978
01/01/2000,00:09:48.965,-1037,-612,584,1494,683,-187,556,97,565,24.500000,56.099998,981.539978
01/01/2000,00:09:48.975,-788,-449,812,2341,731,-240,562,111,582,24.500000,56.099998,981.539978
01/01/2000,00:09:48.984,-799,-209,608,1784,669,-107,552,106,561,24.500000,56.099998,981.539978
01/01/2000,00:09:48.993,-874,-51,226,868,606,45,552,124,568,24.500000,56.099998,981.539978
01/01/2000,00:09:49.002,-874,-51,226,487,594,57,552,124,568,24.500000,56.099998,981.539978
01/01/2000,00:09:49.012,-835,-83,158,304,334,36,531,114,577,24.500000,56.099998,981.539978
01/01/2000,00:09:49.022,-740,-97,212,0,92,-1,547,124,597,24.500000,56.099998,981.539978
01/01/2000,00:09:49.031,-638,-69,133,-179,51,-53,538,106,604,24.500000,56.099998,981.539978
01/01/2000,00:09:49.040,-592,-81,9,-195,25,-55,537,105,609,24.500000,56.099998,981.539978
01/01/2000,00:09:49.059,-663,27,-537,1107,182,-146,523,123,627,24.500000,56.099998,981.539978
01/01/2000,00:09:49.068,-816,191,-642,2185,283,-324,532,127,618,24.500000,56.099998,981.539978
01/01/2000,00:09:49.078,-886,300,-645,2766,264,-514,507,127,613,24.500000,56.099998,981.539978
01/01/2000,00:09:49.087,-854,297,-405,2866,422,-661,528,144,631,24.500000,56.099998,981.539978
01/01/2000,00:09:49.096,-891,326,237,2217,2269,-765,528,144,631,24.500000,56.099998,981.539978
01/01/2000,00:09:49.106,-1093,327,970,-65,2866,-737,475,184,660,24.500000,56.099998,981.539978
01/01/2000,00:09:49.115,-1329,54,1234,-1547,2140,-911,475,184,663,24.500000,56.099998,981.539978
01/01/2000,00:09:49.125,-1256,-337,807,-665,509,-957,451,162,678,24.500000,56.099998,981.539978
01/01/2000,00:09:49.134,-994,-582,250,1048,-599,-543,427,135,658,24.500000,56.099998,981.539978
01/01/2000,00:09:49.143,-884,-670,16,1789,-1176,-138,439,178,658,24.500000,56.099998,981.539978
01/01/2000,00:09:49.153,-850,-675,-88,1519,-1190,16,441,165,675,24.500000,56.099998,981.539978
01/01/2000,00:09:49.162,-895,-691,-137,954,-825,-28,441,175,663,24.500000,56.099998,981.539978
01/01/2000,00:09:49.171,-990,-771,-117,306,-128,-177,448,174,652,24.500000,56.099998,981.539978
01/01/2000,00:09:49.180,-1144,-886,-102,-154,645,-293,448,174,652,24.500000,56.099998,981.539978
01/01/2000,00:09:49.190,-1306,-1064,-17,-160,1400,-280,453,168,675,24.500000,56.099998,981.539978
01/01/2000,00:09:49.200,-1479,-1269,435,198,1322,-82,435,150,679,24.500000,56.099998,981.539978
01/01/2000,00:09:49.209,-1566,-1077,784,164,-182,182,424,145,696,24.500000,56.099998,981.539978
01/01/2000,00:09:49.218,-1438,-653,399,-210,-1397,308,414,160,693,24.500000,56.099998,981.539978
01/01/2000,00:09:49.228,-1257,-547,-10,-547,-1257,336,432,120,691,24.500000,56.099998,981.570007
01/01/2000,00:09:49.237,-1151,-574,-31,-865,-991,337,432,120,691,24.500000,56.099998,981.570007
01/01/2000,00:09:49.246,-1062,-565,-21,-1206,-1135,423,445,97,691,24.500000,56.099998,981.570007
01/01/2000,00:09:49.256,-1011,-522,-81,-1552,-1169,558,454,81,667,24.500000,56.099998,981.570007
01/01/2000,00:09:49.265,-969,-471,-147,-1835,-820,688,454,81,667,24.500000,56.099998,981.570007
01/01/2000,00:09:49.274,-926,-428,-145,-1879,-322,834,480,21,669,24.500000,56.099998,981.570007
01/01/2000,00:09:49.284,-1042,-393,10,-1879,-322,834,484,7,637,24.500000,56.099998,981.570007
01/01/2000,00:09:49.293,-1320,-188,236,-1525,-101,1120,504,-22,640,24.500000,56.099998,981.570007
01/01/2000,00:09:49.303,-1417,31,246,-1154,-476,1381,498,-27,616,24.500000,56.099998,981.570007
01/01/2000,00:09:49.312,-1344,58,-38,-1180,-1120,1392,498,-36,594,24.500000,56.099998,981.570007
01/01/2000,00:09:49.321,-1385,82,-331,-1301,-1434,1358,531,-76,573,24.500000,56.099998,981.570007
01/01/2000,00:09:49.331,-1626,218,-371,-1208,-1347,1337,534,-87,537,24.500000,56.099998,981.570007
01/01/2000,00:09:49.340,-2028,509,-105,-931,-1068,1224,546,-84,535,24.500000,56.099998,981.570007
01/01/2000,00:09:49.353,-2028,933,282,-691,-774,917,550,-88,519,24.500000,56.099998,981.570007
01/01/2000,00:09:49.358,-2434,933,282,-610,-810,310,550,-88,519,24.500000,56.099998,981.570007
01/01/2000,00:09:49.368,-2459,1244,319,-397,-1145,-345,547,-96,519,24.500000,56.099998,981.570007
01/01/2000,00:09:49.378,-1943,1209,33,473,-1415,-380,559,-79,484,24.500000,56.099998,981.570007
01/01/2000,00:09:49.387,-1357,912,-148,1816,-1562,-115,570,-93,484,24.500000,56.099998,981.570007
01/01/2000,00:09:49.396,-1049,590,-67,2693,-1587,-60,582,-75,468,24.500000,56.099998,981.570007
01/01/2000,00:09:49.406,-702,230,174,2312,-1033,-44,579,-85,456,24.500000,56.099998,981.570007
01/01/2000,00:09:49.415,-341,-144,232,732,-79,216,604,-72,444,24.500000,56.099998,981.570007
01/01/2000,00:09:49.424,-347,-263,136,-633,129,569,603,-63,433,24.500000,56.099998,981.570007
01/01/2000,00:09:49.434,-513,-259,107,-981,-440,515,615,-75,426,24.500000,56.099998,981.570007
01/01/2000,00:09:49.443,-524,-321,-7,-529,-1011,445,606,-69,433,24.500000,56.099998,981.570007
01/01/2000,00:09:49.452,-490,-400,-68,118,-1072,567,606,-69,433,24.500000,56.099998,981.570007
01/01/2000,00:09:49.461,-508,-454,54,439,-788,726,633,-73,414,24.500000,56.099998,981.570007
01/01/2000,00:09:49.471,-475,-458,185,325,-513,837,603,-72,394,24.500000,56.099998,981.570007
01/01/2000,00:09:49.481,-401,-447,207,-59,-368,918,601,-64,402,24.500000,56.099998,981.570007
01/01/2000,00:09:49.490,-366,-428,127,-485,-291,955,610,-67,381,24.500000,56.099998,981.570007
01/01/2000,00:09:49.503,-405,-394,48,-794,-306,889,615,-69,370,24.500000,56.099998,981.570007
01/01/2000,00:09:49.509,-438,-371,3,-952,-462,790,594,-66,366,24.500000,56.099998,981.570007
01/01/2000,00:09:49.518,-411,-348,-28,-1045,-597,696,612,-58,372,24.500000,56.099998,981.570007
01/01/2000,00:09:49.528,-357,-296,-64,-1096,-597,566,619,-64,351,24.500000,56.099998,981.570007
01/01/2000,00:09:49.537,-309,-229,-92,-1128,-456,379,619,-88,340,24.500000,56.099998,981.570007
01/01/2000,00:09:49.546,-277,-157,-127,-1125,-209,151,619,-88,340,24.500000,56.099998,981.570007
01/01/2000,00:09:49.556,-274,-84,-131,-1046,85,-90,609,-70,327,24.500000,56.099998,981.570007
01/01/2000,00:09:49.565,-327,3,-39,-920,374,-356,633,-67,328,24.500000,56.099998,981.570007
01/01/2000,00:09:49.574,-408,68,159,-847,634,-622,621,-67,339,24.500000,56.099998,981.570007
01/01/2000,00:09:49.584,-475,71,417,-921,824,-788,633,-40,325,24.500000,56.099998,981.570007
01/01/2000,00:09:49.593,-577,18,727,-1086,806,-836,637,-45,334,24.500000,56.099998,981.570007
01/01/2000,00:09:49.602,-760,-174,1098,-1330,575,-793,637,-39,333,24.500000,56.099998,981.570007
01/01/2000,00:09:49.612,-1068,-457,1186,-1330,575,-793,657,-13,337,24.500000,56.099998,981.570007
01/01/2000,00:09:49.621,-1526,-683,915,-1124,408,-669,633,-6,349,24.500000,56.099998,981.570007
01/01/2000,00:09:49.630,-1915,-796,622,-305,361,-402,633,-6,349,24.500000,56.099998,981.570007
01/01/2000,00:09:49.639,-2019,-785,653,407,514,81,634,0,349,24.500000,56.099998,981.570007
01/01/2000,00:09:49.649,-1832,-701,753,349,603,613,642,-10,357,24.500000,56.099998,981.570007
01/01/2000,00:09:49.668,-1520,72,125,645,224,1600,634,-1,363,24.500000,56.099998,981.570007
01/01/2000,00:09:49.677,-1387,315,-191,805,325,1493,636,-13,363,24.500000,56.099998,981.570007
01/01/2000,00:09:49.687,-1368,246,-5,710,390,836,645,-30,363,24.500000,56.099998,981.570007
01/01/2000,00:09:49.696,-1368,303,101,258,-37,100,634,-15,366,24.500000,56.099998,981.570007
01/01/2000,00:09:49.706,-1731,303,101,-394,-542,-802,640,-22,340,24.500000,56.099998,981.570007
01/01/2000,00:09:49.715,-1880,309,-145,-801,-547,-1611,642,6,358,24.500000,56.099998,981.570007
01/01/2000,00:09:49.724,-1685,159,-247,-729,-34,-1815,642,6,358,24.500000,56.099998,981.570007
01/01/2000,00:09:49.733,-1315,73,-163,-402,112,-1354,651,16,358,24.500000,56.099998,981.570007
01/01/2000,00:09:49.743,-889,223,-469,-72,-14,-737,661,13,375,24.500000,56.099998,981.570007
01/01/2000,00:09:49.752,-612,382,-868,238,580,-392,652,36,354,24.500000,56.099998,981.570007
01/01/2000,00:09:49.762,-389,367,-776,594,1357,-230,652,18,366,24.500000,56.099998,981.570007
01/01/2000,00:09:49.771,-297,343,-137,745,1234,-278,651,43,369,24.500000,56.099998,981.570007
01/01/2000,00:09:49.780,-328,326,335,369,128,-509,646,42,375,24.500000,56.099998,981.570007
01/01/2000,00:09:49.790,-537,253,85,-223,205,-746,637,66,376,24.500000,56.099998,981.570007
01/01/2000,00:09:49.799,-798,111,-313,-676,808,-786,657,58,397,24.500000,56.099998,981.570007
01/01/2000,00:09:49.809,-1011,-58,-416,-1059,642,-680,643,72,402,24.500000,56.099998,981.570007
01/01/2000,00:09:49.817,-1300,-158,-416,-1364,-25,-740,643,72,402,24.500000,56.099998,981.570007
01/01/2000,00:09:49.827,-1580,-240,-382,-1570,-451,-881,648,61,381,24.500000,56.099998,981.570007
01/01/2000,00:09:49.837,-1710,-372,-393,-1574,-445,-850,646,70,393,24.500000,56.099998,981.570007
01/01/2000,00:09:49.846,-1683,-532,-354,-285,386,-612,661,67,384,24.500000,56.099998,981.570007
01/01/2000,00:09:49.855,-1466,-647,40,1166,952,-614,646,93,384,24.500000,56.099998,981.570007
01/01/2000,00:09:49.865,-1052,-607,581,1635,720,-473,652,90,397,24.500000,56.099998,981.570007
01/01/2000,00:09:49.874,-823,-393,772,1056,479,-156,660,87,387,24.500000,56.099998,981.570007
01/01/2000,00:09:49.884,-891,-143,569,224,611,-38,652,90,417,24.500000,56.099998,981.570007
01/01/2000,00:09:49.893,-937,-62,355,-384,708,-77,636,100,411,24.500000,56.099998,981.570007
01/01/2000,00:09:49.902,-828,-113,235,-772,710,-101,628,97,441,24.500000,56.099998,981.570007
01/01/2000,00:09:49.914,-650,-141,139,-885,718,-19,628,97,441,24.500000,56.099998,981.570007
01/01/2000,00:09:49.921,-518,-121,107,-684,725,83,622,109,448,24.500000,56.099998,981.570007
01/01/2000,00:09:49.930,-496,-73,84,-294,617,80,622,109,448,24.500000,56.099998,981.570007
01/01/2000,00:09:49.940,-501,-59,16,96,319,26,637,109,429,24.500000,56.099998,981.570007
01/01/2000,00:09:49.949,-491,-27,-182,632,23,-53,640,100,435,24.500000,56.099998,981.570007
01/01/2000,00:09:49.958,-467,9,-330,1334,-70,-184,633,118,432,24.500000,56.099998,981.570007
01/01/2000,00:09:49.968,-470,-32,-298,1878,66,-245,636,111,441,24.500000,56.099998,981.570007
01/01/2000,00:09:49.977,-573,-88,-220,1878,66,-245,628,130,447,24.500000,56.099998,981.570007
01/01/2000,00:09:49.987,-722,-109,-154,2133,275,-268,633,133,445,24.500000,56.099998,981.570007
01/01/2000,00:09:49.995,-800,-65,1,2134,475,-342,633,133,445,24.500000,56.099998,981.570007
01/01/2000,00:09:50.005,-885,37,399,1701,1254,-445,642,133,445,24.500000,56.099998,981.570007
01/01/2000,00:09:50.015,-1197,156,1001,512,2524,-485,628,144,472,24.500000,56.099998,981.570007
01/01/2000,00:09:50.024,-1497,64,1217,-737,2825,-504,610,144,487,24.500000,56.099998,981.570007
01/01/2000,00:09:50.033,-1440,-214,756,-918,1542,-678,616,147,490,24.500000,56.099998,981.570007
01/01/2000,00:09:50.043,-1440,-408,295,5,195,-550,621,159,495,24.500000,56.099998,981.570007
01/01/2000,00:09:50.052,-1228,-408,295,882,-590,-388,598,153,501,24.500000,56.099998,981.570007
01/01/2000,00:09:50.062,-1141,-548,184,1056,-893,-372,607,168,486,24.500000,56.099998,981.570007
01/01/2000,00:09:50.071,-1150,-715,179,632,-917,-348,616,169,481,24.500000,56.099998,981.570007
01/01/2000,00:09:50.080,-1225,-869,143,29,-840,-225,616,169,481,24.500000,56.099998,981.570007
01/01/2000,00:09:50.089,-1341,-987,140,-465,-675,-108,613,166,469,24.500000,56.099998,981.570007
01/01/2000,00:09:50.099,-1360,-1059,232,-774,-590,-84,618,178,480,24.500000,56.099998,981.570007
01/01/2000,00:09:50.108,-1240,-1030,331,-922,-930,-103,615,169,450,24.500000,56.099998,981.570007
01/01/2000,00:09:50.118,-1072,-832,190,-971,-1244,21,639,183,481,24.500000,56.099998,981.570007
01/01/2000,00:09:50.127,-983,-601,-19,-994,-1253,165,649,163,471,24.500000,56.099998,981.570007
01/01/2000,00:09:50.136,-921,-497,-85,-1087,-1353,260,634,163,444,24.500000,56.099998,981.570007
01/01/2000,00:09:50.146,-777,-447,-96,-1289,-1420,335,619,157,447,24.500000,56.099998,981.570007
01/01/2000,00:09:50.155,-648,-400,-69,-1592,-1311,420,631,151,445,24.500000,56.099998,981.570007
01/01/2000,00:09:50.165,-607,-362,-70,-1951,-1073,553,649,160,408,24.500000,56.099998,981.570007
01/01/2000,00:09:50.173,-660,-323,-92,-2266,-834,701,649,160,408,24.500000,56.099998,981.570007
01/01/2000,00:09:50.183,-788,-294,-116,-2459,-785,830,663,144,426,24.500000,56.099998,981.570007
01/01/2000,00:09:50.193,-965,-302,-186,-2487,-892,968,655,147,420,24.500000,56.099998,981.570007
01/01/2000,00:09:50.202,-1137,-281,-304,-2256,-938,1102,660,117,420,24.500000,56.099998,981.570007
01/01/2000,00:09:50.211,-1322,-247,-357,-1766,-795,1192,661,105,414,24.500000,56.099998,981.570007
01/01/2000,00:09:50.221,-1591,-206,-331,-1214,-597,1134,664,100,408,24.500000,56.099998,981.570007
01/01/2000,00:09:50.230,-1907,-161,-268,-742,-541,929,654,88,396,24.500000,56.099998,981.570007
01/01/2000,00:09:50.240,-2206,-140,-48,-593,-388,681,670,91,412,24.500000,56.099998,981.570007
01/01/2000,00:09:50.249,-2325,-98,91,-566,-389,394,667,84,412,24.500000,56.099998,981.570007
01/01/2000,00:09:50.258,-2159,-68,12,-378,-448,411,661,67,408,24.500000,56.099998,981.570007
01/01/2000,00:09:50.276,-1557,4,40,150,-678,411,667,79,412,24.500000,56.099998,981.599976
01/01/2000,00:09:50.286,-1138,-168,-106,-195,-411,470,676,69,375,24.500000,56.099998,981.599976
01/01/2000,00:09:50.296,-830,-448,-193,-1230,157,634,669,60,390,24.500000,56.099998,981.599976
01/01/2000,00:09:50.305,-735,-647,-134,-2018,266,897,675,70,384,24.500000,56.099998,981.599976
01/01/2000,00:09:50.315,-734,-539,-183,-2002,-89,1002,678,42,384,24.500000,56.099998,981.599976
01/01/2000,00:09:50.324,-742,-194,-186,-2002,-89,1002,673,33,412,24.500000,56.099998,981.599976
01/01/2000,00:09:50.333,-711,61,-66,-1669,-134,892,669,37,384,24.500000,56.099998,981.599976
01/01/2000,00:09:50.343,-590,42,51,-1610,26,653,676,27,388,24.500000,56.099998,981.599976
01/01/2000,00:09:50.352,-554,-51,99,-1829,115,587,661,25,393,24.500000,56.099998,981.599976
01/01/2000,00:09:50.361,-674,-128,3,-2217,54,733,661,25,393,24.500000,56.099998,981.599976
01/01/2000,00:09:50.373,-674,-128,3,-2448,2,800,679,-4,394,24.500000,56.099998,981.599976
01/01/2000,00:09:50.380,-910,-276,-157,-2535,-85,687,661,10,390,24.500000,56.099998,981.599976
01/01/2000,00:09:50.389,-910,-288,-221,-2569,-151,447,663,-18,360,24.500000,56.099998,981.599976
01/01/2000,00:09:50.399,-871,-288,-221,-2527,-152,187,675,-22,384,24.500000,56.099998,981.599976
01/01/2000,00:09:50.408,-726,-271,-284,-2373,-127,39,672,-10,363,24.500000,56.099998,981.599976
01/01/2000,00:09:50.418,-599,-236,-354,-2139,-55,14,676,-22,373,24.500000,56.099998,981.599976
01/01/2000,00:09:50.427,-533,-225,-434,-1870,115,73,664,-25,355,24.500000,56.099998,981.599976
01/01/2000,00:09:50.436,-539,-215,-516,-1562,481,165,666,-36,372,24.500000,56.099998,981.599976
01/01/2000,00:09:50.445,-607,-182,-518,-1275,903,175,666,-36,372,24.500000,56.099998,981.599976
01/01/2000,00:09:50.454,-695,-149,-405,-1130,1168,157,679,-28,372,24.500000,56.099998,981.599976
01/01/2000,00:09:50.464,-777,-94,-244,-1165,1127,135,675,-30,388,24.500000,56.099998,981.599976
01/01/2000,00:09:50.474,-805,7,-73,-1360,853,92,666,-43,387,24.500000,56.099998,981.599976
01/01/2000,00:09:50.483,-776,98,167,-1728,503,92,664,-36,394,24.500000,56.099998,981.599976
01/01/2000,00:09:50.493,-830,185,601,-2392,159,186,652,-57,393,24.500000,56.099998,981.599976
01/01/2000,00:09:50.502,-1151,194,1005,-2795,272,213,672,-54,379,24.500000,56.099998,981.599976
01/01/2000,00:09:50.511,-1432,79,1086,-2866,501,187,670,-58,379,24.500000,56.099998,981.599976
01/01/2000,00:09:50.524,-1333,-40,874,-2866,245,353,649,-49,363,24.500000,56.099998,981.599976
01/01/2000,00:09:50.529,-1045,-130,552,-1848,-401,747,648,-66,384,24.500000,56.099998,981.599976
01/01/2000,00:09:50.539,-846,-182,319,-515,-896,1112,648,-66,384,24.500000,56.099998,981.599976
01/01/2000,00:09:50.548,-803,-205,142,270,-1012,1238,666,-81,348,24.500000,56.099998,981.599976
01/01/2000,00:09:50.558,-777,-84,-206,683,-532,1072,663,-99,349,24.500000,56.099998,981.599976
01/01/2000,00:09:50.567,-803,139,-407,941,0,735,657,-112,352,24.500000,56.099998,981.599976
01/01/2000,00:09:50.577,-902,339,-504,1027,261,316,660,-111,358,24.500000,56.099998,981.599976
01/01/2000,00:09:50.586,-1003,431,-628,1045,427,-217,645,-118,351,24.500000,56.099998,981.599976
01/01/2000,00:09:50.596,-1049,374,-589,834,675,-644,646,-108,358,24.500000,56.099998,981.599976
01/01/2000,00:09:50.605,-1141,304,-441,410,958,-767,664,-106,372,24.500000,56.099998,981.599976
01/01/2000,00:09:50.614,-1407,248,-271,-78,955,-736,648,-109,394,24.500000,56.099998,981.599976
01/01/2000,00:09:50.624,-1638,134,-185,-513,405,-565,657,-84,391,24.500000,56.099998,981.599976
01/01/2000,00:09:50.632,-1681,7,-241,-864,-295,-256,657,-84,391,24.500000,56.099998,981.599976
01/01/2000,00:09:50.642,-1568,-90,-406,-1111,-388,-15,663,-114,409,24.500000,56.099998,981.599976
01/01/2000,00:09:50.652,-1463,-160,-386,-1039,-75,144,660,-87,387,24.500000,56.099998,981.599976
01/01/2000,00:09:50.661,-1421,-281,-340,-512,197,23,655,-93,400,24.500000,56.099998,981.599976
01/01/2000,00:09:50.671,-1336,-523,-261,-512,197,23,660,-97,379,24.500000,56.099998,981.599976
01/01/2000,00:09:50.680,-1190,-737,-61,-169,509,-345,660,-70,388,24.500000,56.099998,981.599976
01/01/2000,00:09:50.689,-1087,-761,-1,-386,614,-534,664,-87,390,24.500000,56.099998,981.599976
01/01/2000,00:09:50.699,-999,-645,-83,-1003,537,-443,655,-82,403,24.500000,56.099998,981.599976
01/01/2000,00:09:50.708,-902,-513,-151,-1574,366,-318,658,-79,391,24.500000,56.099998,981.599976
01/01/2000,00:09:50.717,-837,-398,-179,-2068,210,-224,657,-82,397,24.500000,56.099998,981.599976
01/01/2000,00:09:50.726,-837,-398,-179,-2474,205,-104,657,-82,397,24.500000,56.099998,981.599976
01/01/2000,00:09:50.735,-773,-302,-219,-2710,399,51,648,-111,390,24.500000,56.099998,981.599976
01/01/2000,00:09:50.745,-748,-202,-253,-2713,737,210,658,-90,378,24.500000,56.099998,981.599976
01/01/2000,00:09:50.755,-787,-62,-282,-2419,1071,319,645,-111,370,24.500000,56.099998,981.599976
01/01/2000,00:09:50.764,-835,74,-264,-1926,1402,460,649,-112,391,24.500000,56.099998,981.599976
01/01/2000,00:09:50.774,-950,188,-109,-1440,1915,558,651,-106,384,24.500000,56.099998,981.599976
01/01/2000,00:09:50.783,-1219,376,216,-923,2149,491,639,-136,399,24.500000,56.099998,981.599976
01/01/2000,00:09:50.792,-1442,541,461,-200,1556,199,621,-133,426,24.500000,56.099998,981.599976
01/01/2000,00:09:50.802,-1456,506,426,610,580,48,642,-142,421,24.500000,56.099998,981.599976
01/01/2000,00:09:50.811,-1315,370,282,1258,-79,17,628,-129,424,24.500000,56.099998,981.599976
01/01/2000,00:09:50.820,-1143,260,153,1524,-313,12,628,-129,424,24.500000,56.099998,981.599976
01/01/2000,00:09:50.829,-1022,188,-6,1550,-485,14,645,-123,438,24.500000,56.099998,981.599976
01/01/2000,00:09:50.839,-884,172,-235,1432,-542,-53,630,-118,441,24.500000,56.099998,981.599976
01/01/2000,00:09:50.849,-711,200,-471,1397,-311,-126,642,-103,426,24.500000,56.099998,981.599976
01/01/2000,00:09:50.858,-528,197,-549,1494,84,-100,630,-114,444,24.500000,56.099998,981.599976
01/01/2000,00:09:50.879,-370,110,-379,1376,487,77,625,-117,439,24.500000,56.099998,981.599976
01/01/2000,00:09:50.886,-475,-124,173,-105,776,-53,619,-96,466,24.500000,56.099998,981.599976
01/01/2000,00:09:50.895,-601,-271,129,-842,1064,-301,619,-106,457,24.500000,56.099998,981.599976
01/01/2000,00:09:50.905,-768,-394,95,-1258,1509,-452,636,-108,480,24.500000,56.099998,981.599976
01/01/2000,00:09:50.914,-955,-455,157,-1327,1791,-487,636,-108,480,24.500000,56.099998,981.599976
01/01/2000,00:09:50.923,-1106,-437,266,-1059,1669,-379,628,-120,481,24.500000,56.099998,981.599976
01/01/2000,00:09:50.933,-1202,-325,352,-591,1240,-157,603,-123,498,24.500000,56.099998,981.599976
01/01/2000,00:09:50.942,-1258,-177,383,-187,674,-14,603,-123,498,24.500000,56.099998,981.599976
01/01/2000,00:09:50.952,-1290,-129,341,-119,259,8,604,-109,508,24.500000,56.099998,981.599976
01/01/2000,00:09:50.961,-1302,-238,272,-296,54,-9,604,-111,511,24.500000,56.099998,981.599976
01/01/2000,00:09:50.970,-1284,-413,226,-452,-128,-10,609,-106,502,24.500000,56.099998,981.599976
01/01/2000,00:09:50.980,-1212,-537,210,-487,-332,32,609,-111,502,24.500000,56.099998,981.599976
01/01/2000,00:09:50.989,-1151,-525,226,-509,-502,121,601,-118,505,24.500000,56.099998,981.599976
01/01/2000,00:09:50.998,-1132,-387,251,-619,-593,171,601,-118,505,24.500000,56.099998,981.599976
01/01/2000,00:09:51.007,-1131,-230,189,-696,-714,158,606,-117,492,24.500000,56.099998,981.599976
01/01/2000,00:09:51.017,-1125,-186,-35,-696,-714,158,607,-108,489,24.500000,56.099998,981.599976
01/01/2000,00:09:51.027,-1038,-284,-198,-523,-1003,126,600,-117,493,24.500000,56.099998,981.599976
01/01/2000,00:09:51.036,-928,-416,-177,-328,-980,135,597,-132,489,24.500000,56.099998,981.599976
01/01/2000,00:09:51.045,-861,-528,-103,-290,-814,159,630,-117,477,24.500000,56.099998,981.599976
01/01/2000,00:09:51.055,-844,-603,-38,-460,-771,205,604,-127,474,24.500000,56.099998,981.599976
01/01/2000,00:09:51.064,-925,-573,-45,-785,-808,339,619,-130,460,24.500000,56.099998,981.599976
01/01/2000,00:09:51.076,-1044,-463,-174,-1186,-873,445,612,-126,456,24.500000,56.099998,981.599976
01/01/2000,00:09:51.083,-1044,-370,-202,-1446,-758,486,622,-120,445,24.500000,56.099998,981.599976
01/01/2000,00:09:51.092,-1231,-370,-202,-1418,-620,571,622,-120,445,24.500000,56.099998,981.599976
01/01/2000,00:09:51.101,-1488,-249,-54,-1217,-649,661,615,-150,441,24.500000,56.099998,981.599976
01/01/2000,00:09:51.111,-1640,-82,57,-1179,-748,674,627,-177,453,24.500000,56.099998,981.599976
01/01/2000,00:09:51.120,-1672,83,47,-1308,-772,684,610,-147,426,24.500000,56.099998,981.599976
01/01/2000,00:09:51.130,-1717,241,-2,-1430,-869,599,604,-177,402,24.500000,56.099998,981.599976
01/01/2000,00:09:51.139,-1813,408,-31,-1499,-977,421,613,-168,391,24.500000,56.099998,981.599976
01/01/2000,00:09:51.148,-1800,550,-157,-1368,-960,87,612,-168,373,24.500000,56.099998,981.599976
01/01/2000,00:09:51.158,-1603,529,-278,-1027,-733,-72,627,-178,384,24.500000,56.099998,981.599976
01/01/2000,00:09:51.167,-1427,379,-218,-751,-711,-70,616,-180,385,24.500000,56.099998,981.599976
01/01/2000,00:09:51.176,-1256,254,-198,-118,-1300,181,627,-168,354,24.500000,56.099998,981.599976
01/01/2000,00:09:51.185,-1149,279,-195,772,-1644,388,627,-168,354,24.500000,56.099998,981.599976
01/01/2000,00:09:51.195,-1079,265,49,1122,-1409,330,625,-193,354,24.500000,56.099998,981.599976
01/01/2000,00:09:51.205,-945,86,265,736,-1038,402,598,-187,354,24.500000,56.099998,981.599976
01/01/2000,00:09:51.214,-903,2,227,382,-1016,524,630,-177,342,24.500000,56.099998,981.599976
01/01/2000,00:09:51.223,-867,-13,138,358,-1089,574,634,-199,355,24.500000,56.099998,981.599976
01/01/2000,00:09:51.233,-795,-51,148,347,-1057,556,619,-180,330,24.500000,56.099998,981.599976
01/01/2000,00:09:51.242,-726,-82,182,217,-935,508,637,-202,333,24.500000,56.099998,981.599976
01/01/2000,00:09:51.251,-687,-99,178,131,-837,451,618,-204,349,24.500000,56.099998,981.599976
01/01/2000,00:09:51.261,-691,-106,164,65,-846,404,625,-196,337,24.500000,56.099998,981.599976
01/01/2000,00:09:51.270,-641,-147,100,-92,-899,390,639,-192,321,24.500000,56.099998,981.599976
01/01/2000,00:09:51.279,-519,-207,41,-219,-919,410,639,-192,321,24.500000,56.099998,981.599976
01/01/2000,00:09:51.288,-452,-221,28,-301,-924,487,625,-195,322,24.500000,56.099998,981.599976
01/01/2000,00:09:51.298,-446,-188,30,-339,-884,484,610,-192,313,24.500000,56.099998,981.599976
01/01/2000,00:09:51.308,-421,-178,55,-396,-762,416,618,-205,292,24.500000,56.099998,981.599976
01/01/2000,00:09:51.317,-395,-156,62,-461,-589,329,606,-205,301,24.500000,56.200001,981.630005
01/01/2000,00:09:51.326,-378,-116,58,-413,-443,236,639,-198,289,24.500000,56.200001,981.630005
01/01/2000,00:09:51.336,-363,-87,61,-324,-309,186,622,-223,288,24.500000,56.200001,981.630005
01/01/2000,00:09:51.345,-347,-50,54,-324,-309,186,615,-207,294,24.500000,56.200001,981.630005
01/01/2000,00:09:51.354,-318,-12,48,-220,-152,146,616,-225,253,24.500000,56.200001,981.630005
01/01/2000,00:09:51.363,-299,8,68,-97,25,74,616,-225,253,24.500000,56.200001,981.630005
01/01/2000,00:09:51.373,-318,12,125,3,229,-30,610,-226,277,24.500000,56.200001,981.630005
01/01/2000,00:09:51.383,-388,-6,228,52,435,-145,625,-198,288,24.500000,56.200001,981.630005
01/01/2000,00:09:51.392,-510,-93,376,23,596,-279,639,-195,286,24.500000,56.200001,981.630005
01/01/2000,00:09:51.401,-693,-254,536,-107,715,-417,625,-199,300,24.500000,56.200001,981.630005
01/01/2000,00:09:51.411,-969,-482,713,-301,817,-503,624,-193,295,24.500000,56.200001,981.630005
01/01/2000,00:09:51.420,-1351,-698,787,-459,815,-449,622,-192,306,24.500000,56.200001,981.630005
01/01/2000,00:09:51.429,-1351,-819,763,-490,569,-179,627,-193,327,24.500000,56.200001,981.630005
01/01/2000,00:09:51.439,-1702,-819,763,-344,448,-99,642,-180,303,24.500000,56.200001,981.630005
01/01/2000,00:09:51.448,-1792,-877,710,-239,514,-22,642,-180,303,24.500000,56.200001,981.630005
01/01/2000,00:09:51.457,-1605,-851,579,-128,552,225,652,-184,325,24.500000,56.200001,981.630005
01/01/2000,00:09:51.467,-1312,-792,455,74,250,643,646,-189,346,24.500000,56.200001,981.630005
01/01/2000,00:09:51.486,-830,-630,141,241,107,1117,640,-205,331,24.500000,56.200001,981.630005
01/01/2000,00:09:51.495,-716,-319,278,138,-22,1092,649,-205,334,24.500000,56.200001,981.630005
01/01/2000,00:09:51.504,-979,136,402,-280,-16,546,630,-211,345,24.500000,56.200001,981.630005
01/01/2000,00:09:51.514,-1154,247,138,-701,919,-367,639,-235,363,24.500000,56.200001,981.630005
01/01/2000,00:09:51.523,-1153,251,-188,-589,1127,-719,645,-223,343,24.500000,56.200001,981.630005
01/01/2000,00:09:51.532,-1468,427,-258,-274,771,-1144,630,-211,363,24.500000,56.200001,981.630005
01/01/2000,00:09:51.541,-1805,498,-162,-97,228,-1636,630,-211,363,24.500000,56.200001,981.630005
01/01/2000,00:09:51.551,-2017,454,-43,-250,-139,-1634,664,-204,354,24.500000,56.200001,981.630005
01/01/2000,00:09:51.561,-1870,346,-50,-320,-270,-1008,673,-193,379,24.500000,56.200001,981.630005
01/01/2000,00:09:51.570,-1340,307,-268,-172,-584,-414,682,-180,355,24.500000,56.200001,981.630005
01/01/2000,00:09:51.583,-837,360,-603,91,-164,-207,694,-186,360,24.500000,56.200001,981.630005
01/01/2000,00:09:51.589,-527,331,-632,261,716,-259,684,-178,357,24.500000,56.200001,981.630005
01/01/2000,00:09:51.598,-332,222,-410,226,1134,-370,700,-193,363,24.500000,56.200001,981.630005
01/01/2000,00:09:51.607,-175,53,-244,27,1012,-416,697,-181,369,24.500000,56.200001,981.630005
01/01/2000,00:09:51.617,-123,-148,-152,-384,612,-282,694,-183,397,24.500000,56.200001,981.630005
01/01/2000,00:09:51.626,-297,-238,-212,-927,302,-173,700,-192,382,24.500000,56.200001,981.630005
01/01/2000,00:09:51.644,-937,-246,-385,-1726,-130,-74,723,-204,397,24.500000,56.200001,981.630005
01/01/2000,00:09:51.654,-1347,-352,-358,-1675,-353,-15,703,-204,376,24.500000,56.200001,981.630005
01/01/2000,00:09:51.664,-1651,-526,-298,-393,-31,140,715,-205,373,24.500000,56.200001,981.630005
01/01/2000,00:09:51.673,-1768,-633,-23,1095,875,37,708,-214,355,24.500000,56.200001,981.630005
01/01/2000,00:09:51.682,-1585,-592,553,1489,1223,-173,706,-204,385,24.500000,56.200001,981.630005
01/01/2000,00:09:51.692,-1241,-337,939,719,623,-166,690,-210,405,24.500000,56.200001,981.630005
01/01/2000,00:09:51.701,-1097,-40,807,-248,-51,-102,690,-207,411,24.500000,56.200001,981.630005
01/01/2000,00:09:51.710,-1086,20,438,-248,-51,-102,705,-210,400,24.500000,56.200001,981.630005
01/01/2000,00:09:51.720,-1087,-50,194,-942,-167,-117,723,-222,375,24.500000,56.200001,981.630005
01/01/2000,00:09:51.729,-1092,-112,112,-1296,83,-102,723,-222,375,24.500000,56.200001,981.630005
01/01/2000,00:09:51.739,-994,-157,63,-1372,211,-95,691,-213,379,24.500000,56.200001,981.630005
01/01/2000,00:09:51.748,-854,-162,19,-1264,390,-138,691,-213,379,24.500000,56.200001,981.630005
01/01/2000,00:09:51.757,-737,-196,71,-914,565,-186,696,-235,364,24.500000,56.200001,981.630005
01/01/2000,00:09:51.767,-630,-268,174,-509,515,-207,705,-234,379,24.500000,56.200001,981.630005
01/01/2000,00:09:51.776,-630,-248,177,-378,216,-130,717,-232,372,24.500000,56.200001,981.630005
01/01/2000,00:09:51.785,-601,-248,177,-458,-292,-91,696,-219,360,24.500000,56.200001,981.630005
01/01/2000,00:09:51.795,-538,-191,1,-453,-700,-92,694,-250,352,24.500000,56.200001,981.630005
01/01/2000,00:09:51.804,-418,-157,-251,-167,-722,-61,717,-235,330,24.500000,56.200001,981.630005
01/01/2000,00:09:51.813,-368,-114,-441,306,-324,-43,717,-235,330,24.500000,56.200001,981.630005
01/01/2000,00:09:51.822,-500,-92,-471,839,183,-6,706,-222,333,24.500000,56.200001,981.630005
01/01/2000,00:09:51.832,-735,-103,-345,1213,450,-43,703,-231,339,24.500000,56.200001,981.630005
01/01/2000,00:09:51.842,-905,-123,-197,1304,553,-108,705,-211,366,24.500000,56.200001,981.630005
01/01/2000,00:09:51.851,-1021,-137,-92,1152,730,-145,687,-237,378,24.500000,56.200001,981.630005
01/01/2000,00:09:51.860,-1098,-158,-7,791,1031,-168,690,-226,385,24.500000,56.200001,981.630005
01/01/2000,00:09:51.870,-1106,-178,105,25,2360,-175,666,-243,391,24.500000,56.200001,981.630005
01/01/2000,00:09:51.879,-1282,-193,695,-1015,2844,-230,669,-234,405,24.500000,56.200001,981.630005
01/01/2000,00:09:51.888,-1714,-289,1592,-1325,2318,-289,670,-235,448,24.500000,56.200001,981.630005
01/01/2000,00:09:51.898,-1761,-388,1427,-561,39,-84,645,-247,429,24.500000,56.200001,981.630005
01/01/2000,00:09:51.907,-1397,-410,489,90,-1010,20,645,-247,429,24.500000,56.200001,981.630005
01/01/2000,00:09:51.916,-1194,-428,5,-98,-821,-11,643,-232,429,24.500000,56.200001,981.630005
01/01/2000,00:09:51.926,-1222,-501,43,-300,-664,9,642,-244,414,24.500000,56.200001,981.630005
01/01/2000,00:09:51.939,-1211,-558,268,-399,-852,30,654,-228,390,24.500000,56.200001,981.630005
01/01/2000,00:09:51.945,-1138,-468,239,-565,-1224,71,624,-220,372,24.500000,56.200001,981.630005
01/01/2000,00:09:51.954,-1114,-359,19,-798,-1352,94,627,-216,342,24.500000,56.200001,981.630005
01/01/2000,00:09:51.963,-1057,-351,-102,-1007,-1249,124,642,-232,358,24.500000,56.200001,981.630005
01/01/2000,00:09:51.973,-981,-378,-135,-1204,-1120,160,625,-231,327,24.500000,56.200001,981.630005
01/01/2000,00:09:51.982,-950,-384,-144,-1417,-921,211,597,-208,295,24.500000,56.200001,981.630005
01/01/2000,00:09:51.991,-964,-406,-10,-1506,-774,299,604,-223,306,24.500000,56.200001,981.630005
01/01/2000,00:09:52.000,-968,-446,187,-1304,-989,465,604,-223,306,24.500000,56.200001,981.630005
01/01/2000,00:09:52.010,-1015,-412,193,-1024,-1128,655,600,-216,268,24.500000,56.200001,981.630005
01/01/2000,00:09:52.020,-1071,-295,59,-898,-915,821,595,-220,270,24.500000,56.200001,981.630005
01/01/2000,00:09:52.029,-1038,-143,-55,-851,-709,898,564,-213,246,24.500000,56.200001,981.630005
01/01/2000,00:09:52.038,-966,-7,-138,-788,-756,887,579,-228,247,24.500000,56.200001,981.630005
01/01/2000,00:09:52.048,-996,105,-274,-648,-898,742,582,-216,249,24.500000,56.200001,981.630005
01/01/2000,00:09:52.057,-1179,156,-395,-648,-898,742,573,-214,243,24.500000,56.200001,981.630005
01/01/2000,00:09:52.066,-1448,113,-253,-420,-785,527,564,-207,231,24.500000,56.200001,981.630005
01/01/2000,00:09:52.076,-1660,-29,24,-263,-550,291,558,-201,235,24.500000,56.200001,981.630005
01/01/2000,00:09:52.094,-1641,-525,368,-667,-15,105,577,-196,243,24.500000,56.200001,981.630005
01/01/2000,00:09:52.103,-1641,-525,368,-931,-28,209,538,-204,246,24.500000,56.200001,981.630005
01/01/2000,00:09:52.113,-1186,-993,249,-1131,-353,396,565,-183,238,24.500000,56.200001,981.630005
01/01/2000,00:09:52.123,-1186,-1136,-23,-1311,-454,734,562,-186,244,24.500000,56.200001,981.630005
01/01/2000,00:09:52.132,-938,-1136,-23,-1160,-284,1056,544,-180,231,24.500000,56.200001,981.630005
01/01/2000,00:09:52.141,-813,-1061,-70,-1026,-213,1131,532,-193,249,24.500000,56.200001,981.630005
01/01/2000,00:09:52.151,-838,-597,-59,-1292,-48,962,541,-190,222,24.500000,56.200001,981.630005
01/01/2000,00:09:52.160,-859,-44,-182,-1568,-9,743,528,-180,228,24.500000,56.200001,981.630005
01/01/2000,00:09:52.170,-726,196,-217,-1766,-56,678,553,-174,222,24.500000,56.200001,981.630005
01/01/2000,00:09:52.179,-555,210,-191,-1947,-59,755,537,-190,228,24.500000,56.200001,981.630005
01/01/2000,00:09:52.188,-479,156,-174,-2089,14,787,537,-190,228,24.500000,56.200001,981.630005
01/01/2000,00:09:52.198,-502,94,-175,-2122,126,710,538,-184,195,24.500000,56.200001,981.630005
01/01/2000,00:09:52.207,-556,32,-152,-2072,234,566,544,-177,210,24.500000,56.200001,981.630005
01/01/2000,00:09:52.216,-617,-10,-128,-2020,298,430,547,-175,205,24.500000,56.200001,981.630005
01/01/2000,00:09:52.226,-691,-29,-130,-1950,280,290,540,-184,219,24.500000,56.200001,981.630005
01/01/2000,00:09:52.235,-763,-34,-142,-1836,253,137,541,-192,202,24.500000,56.200001,981.630005
01/01/2000,00:09:52.244,-808,-35,-155,-1705,266,-3,550,-169,208,24.500000,56.200001,981.630005
01/01/2000,00:09:52.254,-834,-28,-154,-1577,267,-100,534,-163,216,24.500000,56.200001,981.630005
01/01/2000,00:09:52.263,-865,8,-152,-1470,183,-136,558,-196,211,24.500000,56.200001,981.630005
01/01/2000,00:09:52.272,-888,90,-192,-1326,182,-71,558,-196,211,24.500000,56.200001,981.630005
01/01/2000,00:09:52.281,-895,198,-236,-1137,366,52,565,-162,216,24.500000,56.200001,981.630005
01/01/2000,00:09:52.291,-902,302,-218,-862,585,180,549,-181,226,24.500000,56.200001,981.630005
01/01/2000,00:09:52.301,-916,385,-85,-595,600,203,564,-174,216,24.500000,56.200001,981.630005
01/01/2000,00:09:52.310,-942,440,151,-501,394,96,550,-187,223,24.500000,56.200001,981.630005
01/01/2000,00:09:52.319,-1025,389,383,-660,100,-41,546,-208,234,24.500000,56.200001,981.630005
01/01/2000,00:09:52.329,-1148,201,552,-849,20,-13,582,-189,220,24.500000,56.200001,981.630005
01/01/2000,00:09:52.338,-1276,20,849,-950,93,96,561,-195,217,24.500000,56.200001,981.630005
01/01/2000,00:09:52.348,-1464,-99,1229,-1134,193,165,565,-210,232,24.500000,56.200001,981.630005
01/01/2000,00:09:52.356,-1547,-274,1174,-1055,56,344,565,-210,232,24.500000,56.200001,981.630005
01/01/2000,00:09:52.366,-1340,-571,560,-419,-311,906,553,-202,217,24.500000,56.599998,981.549988
01/01/2000,00:09:52.376,-1023,-761,-16,292,-540,1423,579,-217,225,24.500000,56.599998,981.549988
01/01/2000,00:09:52.385,-802,-615,-151,793,-566,1532,559,-232,214,24.500000,56.599998,981.549988
01/01/2000,00:09:52.394,-627,-342,-34,1194,-478,1313,558,-250,208,24.500000,56.599998,981.549988
01/01/2000,00:09:52.404,-479,-153,72,1194,-478,1313,558,-261,213,24.500000,56.599998,981.549988
01/01/2000,00:09:52.413,-516,42,-7,1366,-296,1000,523,-274,220,24.500000,56.599998,981.549988
01/01/2000,00:09:52.423,-692,52,-315,1247,-15,529,529,-316,250,24.500000,56.599998,981.549988
01/01/2000,00:09:52.432,-868,-124,-534,1042,711,-76,558,-307,249,24.500000,56.599998,981.549988
01/01/2000,00:09:52.441,-1057,-187,-497,780,1193,-646,558,-307,249,24.500000,56.599998,981.549988
01/01/2000,00:09:52.450,-1057,-187,-497,362,1214,-1021,556,-301,271,24.500000,56.599998,981.549988
01/01/2000,00:09:52.460,-1766,-279,-169,-363,790,-1167,565,-294,267,24.500000,56.599998,981.549988
01/01/2000,00:09:52.469,-2172,-438,84,-1369,116,-1073,550,-319,253,24.500000,56.599998,981.549988
01/01/2000,00:09:52.479,-2178,-438,84,-1757,-88,-606,570,-295,252,24.500000,56.599998,981.549988
01/01/2000,00:09:52.488,-2009,-469,487,-1061,39,-191,559,-325,219,24.500000,56.599998,981.549988
01/01/2000,00:09:52.497,-1381,-253,484,-400,-300,-45,567,-294,202,24.500000,56.599998,981.549988
01/01/2000,00:09:52.507,-990,-91,143,-347,-380,-188,561,-300,201,24.500000,56.599998,981.549988
01/01/2000,00:09:52.516,-796,-31,-98,-764,4,-407,580,-277,187,24.500000,56.599998,981.549988
01/01/2000,00:09:52.526,-695,-42,-176,-1207,291,-507,577,-309,181,24.500000,56.599998,981.549988
01/01/2000,00:09:52.534,-628,-53,-259,-1433,405,-444,577,-309,181,24.500000,56.599998,981.549988
01/01/2000,00:09:52.544,-584,-66,-332,-1528,562,-308,586,-292,171,24.500000,56.599998,981.549988
01/01/2000,00:09:52.554,-580,-84,-283,-1676,574,-227,570,-276,157,24.500000,56.599998,981.549988
01/01/2000,00:09:52.563,-581,-45,-293,-1643,434,-202,586,-279,127,24.500000,56.599998,981.549988
01/01/2000,00:09:52.572,-621,27,-360,-1303,258,-191,592,-265,124,24.500000,56.599998,981.549988
01/01/2000,00:09:52.582,-728,52,-367,-906,206,-175,565,-253,133,24.500000,56.599998,981.549988
01/01/2000,00:09:52.591,-871,15,-322,-614,320,-179,588,-237,108,24.500000,56.599998,981.549988
01/01/2000,00:09:52.601,-978,-65,-241,-469,422,-93,580,-244,112,24.500000,56.599998,981.549988
01/01/2000,00:09:52.610,-1044,-131,-182,-371,466,35,583,-210,102,24.500000,56.599998,981.549988
01/01/2000,00:09:52.619,-1078,-151,-183,-254,546,119,570,-210,93,24.500000,56.599998,981.549988
01/01/2000,00:09:52.628,-951,-6,31,187,1607,184,570,-210,93,24.500000,56.599998,981.549988
01/01/2000,00:09:52.637,-951,202,587,565,1951,142,571,-228,100,24.500000,56.599998,981.549988
01/01/2000,00:09:52.647,-1153,196,814,589,831,35,592,-213,130,24.500000,56.599998,981.549988
01/01/2000,00:09:52.657,-1133,81,408,572,-245,-117,586,-196,115,24.500000,56.599998,981.549988
01/01/2000,00:09:52.666,-940,-20,-113,789,-494,-223,586,-195,117,24.500000,56.599998,981.549988
01/01/2000,00:09:52.675,-767,-65,-481,1065,-200,-239,591,-196,121,24.500000,56.599998,981.549988
01/01/2000,00:09:52.693,-688,4,-633,1379,272,-186,576,-198,118,24.500000,56.599998,981.549988
01/01/2000,00:09:52.704,-848,295,49,527,1806,-368,589,-195,127,24.500000,56.599998,981.549988
01/01/2000,00:09:52.713,-1021,200,444,-432,1881,-591,598,-196,136,24.500000,56.599998,981.549988
01/01/2000,00:09:52.722,-1074,-222,547,-855,1259,-710,598,-196,136,24.500000,56.599998,981.549988
01/01/2000,00:09:52.731,-1043,-580,410,-727,744,-492,612,-190,159,24.500000,56.599998,981.549988
01/01/2000,00:09:52.741,-1020,-695,243,-302,425,-204,603,-186,144,24.500000,56.599998,981.549988
01/01/2000,00:09:52.750,-976,-644,113,-302,425,-204,598,-162,156,24.500000,56.599998,981.549988
01/01/2000,00:09:52.760,-949,-535,59,153,193,31,598,-162,156,24.500000,56.599998,981.549988
01/01/2000,00:09:52.769,-949,-428,-8,415,-29,177,604,-151,151,24.500000,56.599998,981.549988
01/01/2000,00:09:52.779,-990,-324,-158,397,-130,261,595,-144,150,24.500000,56.599998,981.549988
01/01/2000,00:09:52.788,-1070,-286,-246,264,59,256,601,-151,148,24.500000,56.599998,981.549988
01/01/2000,00:09:52.797,-1171,-333,-167,140,362,172,600,-129,148,24.500000,56.599998,981.549988
01/01/2000,00:09:52.807,-1293,-393,79,-88,725,72,612,-118,162,24.500000,56.599998,981.549988
01/01/2000,00:09:52.815,-1293,-393,79,-471,1158,-21,612,-118,162,24.500000,56.599998,981.549988
01/01/2000,00:09:52.825,-1455,-416,469,-756,1252,-67,615,-132,172,24.500000,56.599998,981.549988
01/01/2000,00:09:52.835,-1596,-369,666,-595,616,-65,619,-127,171,24.500000,56.599998,981.549988
01/01/2000,00:09:52.848,-1633,-305,591,-137,-184,-94,622,-114,189,24.500000,56.599998,981.549988
01/01/2000,00:09:52.853,-1498,-281,458,167,-795,-91,600,-126,169,24.500000,56.599998,981.549988
01/01/2000,00:09:52.863,-1252,-332,272,124,-1202,-62,624,-105,157,24.500000,56.599998,981.549988
01/01/2000,00:09:52.872,-1112,-403,58,-250,-1380,-70,603,-91,159,24.500000,56.599998,981.549988
01/01/2000,00:09:52.882,-1072,-500,-155,-591,-1532,-51,607,-97,153,24.500000,56.599998,981.549988
01/01/2000,00:09:52.891,-991,-607,-244,-737,-1159,-22,628,-81,157,24.500000,56.599998,981.549988
01/01/2000,00:09:52.900,-867,-638,-142,-770,-737,26,592,-70,145,24.500000,56.599998,981.549988
01/01/2000,00:09:52.909,-766,-594,-26,-851,-781,169,592,-70,145,24.500000,56.599998,981.549988
01/01/2000,00:09:52.918,-710,-484,-28,-1025,-880,292,612,-63,133,24.500000,56.599998,981.549988
01/01/2000,00:09:52.928,-690,-368,-85,-1130,-822,372,603,-81,117,24.500000,56.599998,981.549988
01/01/2000,00:09:52.938,-713,-316,-110,-1092,-675,539,612,-55,126,24.500000,56.599998,981.549988
01/01/2000,00:09:52.947,-821,-250,-60,-967,-485,819,580,-48,142,24.500000,56.599998,981.549988
01/01/2000,00:09:52.957,-965,-80,101,-882,-448,1002,579,-55,111,24.500000,56.599998,981.549988
01/01/2000,00:09:52.966,-1046,95,244,-976,-599,1009,580,-48,118,24.500000,56.599998,981.549988
01/01/2000,00:09:52.975,-1056,180,188,-1180,-806,954,598,-48,114,24.500000,56.599998,981.549988
01/01/2000,00:09:52.985,-1132,202,-9,-1347,-806,960,553,-61,99,24.500000,56.599998,981.549988
01/01/2000,00:09:52.994,-1413,235,-83,-1566,-520,899,580,-55,103,24.500000,56.599998,981.549988
01/01/2000,00:09:53.003,-1791,348,-2,-1876,-177,650,580,-55,103,24.500000,56.599998,981.549988
01/01/2000,00:09:53.012,-1991,463,-47,-1953,51,265,577,-55,106,24.500000,56.599998,981.549988
01/01/2000,00:09:53.022,-1783,286,-62,-1347,295,291,579,-46,90,24.500000,56.599998,981.549988
01/01/2000,00:09:53.031,-1639,-27,168,-691,-583,447,583,-46,87,24.500000,56.599998,981.549988
01/01/2000,00:09:53.041,-1488,-183,98,68,-1663,537,565,-54,105,24.500000,56.599998,981.549988
01/01/2000,00:09:53.050,-1075,-300,-150,510,-1807,638,568,-42,94,24.500000,56.599998,981.549988
01/01/2000,00:09:53.060,-847,-300,12,448,-1265,630,562,-55,88,24.500000,56.599998,981.549988
01/01/2000,00:09:53.069,-792,-128,180,142,-943,510,553,-70,88,24.500000,56.599998,981.549988
01/01/2000,00:09:53.078,-752,41,116,142,-943,510,552,-63,81,24.500000,56.599998,981.549988
01/01/2000,00:09:53.088,-653,100,60,28,-843,392,558,-76,84,24.500000,56.599998,981.549988
01/01/2000,00:09:53.096,-556,68,65,25,-690,316,558,-76,84,24.500000,56.599998,981.549988
01/01/2000,00:09:53.106,-511,47,46,-140,-575,325,555,-76,67,24.500000,56.599998,981.549988
01/01/2000,00:09:53.116,-477,28,0,-342,-537,356,549,-84,69,24.500000,56.599998,981.549988
01/01/2000,00:09:53.125,-428,-29,-33,-445,-544,361,537,-73,64,24.500000,56.599998,981.549988
01/01/2000,00:09:53.135,-397,-95,-48,-574,-421,374,541,-69,61,24.500000,56.599998,981.549988
01/01/2000,00:09:53.144,-406,-138,-27,-628,-296,394,546,-100,34,24.500000,56.599998,981.549988
01/01/2000,00:09:53.153,-450,-156,-5,-611,-260,424,525,-72,48,24.500000,56.599998,981.549988
01/01/2000,00:09:53.163,-519,-153,5,-594,-256,449,537,-100,25,24.500000,56.599998,981.549988
01/01/2000,00:09:53.172,-519,-153,5,-616,-258,454,531,-85,16,24.500000,56.599998,981.549988
01/01/2000,00:09:53.181,-572,-126,0,-629,-267,401,531,-87,30,24.500000,56.599998,981.549988
01/01/2000,00:09:53.190,-579,-104,-9,-583,-172,277,531,-87,30,24.500000,56.599998,981.549988
01/01/2000,00:09:53.200,-592,-94,9,-539,68,170,531,-78,7,24.500000,56.599998,981.549988
01/01/2000,00:09:53.209,-646,-48,53,-503,327,44,520,-88,21,24.500000,56.599998,981.549988
01/01/2000,00:09:53.219,-676,19,126,-431,463,-82,534,-69,21,24.500000,56.599998,981.549988
01/01/2000,00:09:53.228,-656,66,229,-377,507,-137,544,-72,10,24.500000,56.599998,981.549988
01/01/2000,00:09:53.238,-652,89,352,-397,492,-164,541,-45,10,24.500000,56.599998,981.549988
01/01/2000,00:09:53.247,-720,42,503,-522,428,-219,552,-55,19,24.500000,56.599998,981.549988
01/01/2000,00:09:53.256,-908,-121,659,-701,351,-296,532,-52,22,24.500000,56.599998,981.549988
01/01/2000,00:09:53.266,-1208,-424,697,-701,400,-317,544,-40,15,24.500000,56.599998,981.549988
01/01/2000,00:09:53.274,-1542,-779,567,-377,574,-126,544,-40,15,24.500000,56.599998,981.549988
01/01/2000,00:09:53.284,-1790,-962,402,75,706,163,546,-13,30,24.500000,56.599998,981.549988
01/01/2000,00:09:53.294,-1823,-931,497,280,701,368,558,-9,30,24.500000,56.599998,981.549988
01/01/2000,00:09:53.313,-1407,-387,716,-168,-306,865,556,-16,25,24.500000,56.599998,981.549988
01/01/2000,00:09:53.322,-1343,0,512,135,-397,1060,556,-25,15,24.500000,56.599998,981.549988
01/01/2000,00:09:53.331,-1366,76,260,670,114,1045,565,-33,19,24.500000,56.599998,981.549988
01/01/2000,00:09:53.341,-1331,-114,129,895,546,796,552,-27,28,24.500000,56.599998,981.549988
01/01/2000,00:09:53.350,-1271,-75,2,652,550,90,553,-39,34,24.500000,56.599998,981.549988
01/01/2000,00:09:53.359,-1148,75,-158,431,467,-572,559,-39,27,24.500000,56.599998,981.549988
01/01/2000,00:09:53.368,-1092,188,-198,248,383,-827,559,-39,27,24.500000,56.599998,981.549988
01/01/2000,00:09:53.378,-1079,294,-124,33,333,-822,561,-22,39,24.500000,56.599998,981.549988
01/01/2000,00:09:53.388,-1014,424,-50,-131,241,-615,579,-9,40,24.500000,56.599998,981.549988
01/01/2000,00:09:53.397,-911,599,-85,-246,81,-528,571,-16,34,24.500000,56.599998,981.549988
01/01/2000,00:09:53.406,-779,663,-171,-386,-82,-545,589,-6,60,24.500000,56.299999,981.530029
01/01/2000,00:09:53.416,-657,583,-225,-516,-36,-570,589,-6,60,24.500000,56.299999,981.530029
01/01/2000,00:09:53.425,-573,482,-158,-595,44,-625,595,3,37,24.500000,56.299999,981.530029
01/01/2000,00:09:53.434,-561,369,-165,-595,44,-625,573,7,61,24.500000,56.299999,981.530029
01/01/2000,00:09:53.444,-604,176,-281,-585,234,-760,589,28,72,24.500000,56.299999,981.530029
01/01/2000,00:09:53.452,-673,21,-335,-322,756,-816,589,28,72,24.500000,56.299999,981.530029
01/01/2000,00:09:53.465,-823,-57,-331,-54,1014,-844,600,28,61,24.500000,56.299999,981.530029
01/01/2000,00:09:53.472,-1047,-155,-357,-172,863,-860,600,33,63,24.500000,56.299999,981.530029
01/01/2000,00:09:53.481,-1307,-268,-371,-474,549,-732,613,43,70,24.500000,56.299999,981.530029
01/01/2000,00:09:53.491,-1484,-345,-427,-598,293,-515,597,45,76,24.500000,56.299999,981.530029
01/01/2000,00:09:53.500,-1504,-458,-397,-442,343,-370,594,63,90,24.500000,56.299999,981.530029
01/01/2000,00:09:53.509,-1369,-601,-71,540,1038,-249,597,57,85,24.500000,56.299999,981.530029
01/01/2000,00:09:53.519,-1369,-601,-71,1738,1292,-271,586,48,115,24.500000,56.299999,981.530029
01/01/2000,00:09:53.528,-1090,-687,281,2282,1056,-233,607,61,108,24.500000,56.299999,981.530029
01/01/2000,00:09:53.537,-815,-627,470,2233,757,-80,607,61,108,24.500000,56.299999,981.530029
01/01/2000,00:09:53.546,-696,-412,561,1921,602,95,610,42,103,24.500000,56.299999,981.530029
01/01/2000,00:09:53.556,-750,-221,650,1309,387,142,613,42,112,24.500000,56.299999,981.530029
01/01/2000,00:09:53.566,-827,-196,632,480,-16,159,598,16,129,24.500000,56.299999,981.530029
01/01/2000,00:09:53.575,-843,-225,436,-280,-253,197,606,19,133,24.500000,56.299999,981.530029
01/01/2000,00:09:53.584,-833,-168,167,-774,-332,162,600,19,141,24.500000,56.299999,981.530029
01/01/2000,00:09:53.594,-749,-122,-144,-826,-405,117,613,21,124,24.500000,56.299999,981.530029
01/01/2000,00:09:53.603,-677,-11,-506,-211,-169,-12,604,13,135,24.500000,56.299999,981.530029
01/01/2000,00:09:53.612,-677,137,-706,836,214,-224,603,18,141,24.500000,56.299999,981.530029
01/01/2000,00:09:53.622,-693,136,-643,1902,381,-277,616,-3,129,24.500000,56.299999,981.530029
01/01/2000,00:09:53.630,-764,33,-452,2531,415,-249,616,-3,129,24.500000,56.299999,981.530029
01/01/2000,00:09:53.640,-850,-25,-269,2660,577,-290,604,7,147,24.500000,56.299999,981.530029
01/01/2000,00:09:53.650,-821,70,212,1282,2307,-260,625,-6,165,24.500000,56.299999,981.530029
01/01/2000,00:09:53.659,-899,192,967,-407,2866,-268,604,-3,169,24.500000,56.299999,981.530029
01/01/2000,00:09:53.669,-1137,98,1163,-764,1406,-453,628,-9,186,24.500000,56.299999,981.530029
01/01/2000,00:09:53.678,-1116,-202,551,81,-326,-425,634,-4,192,24.500000,56.299999,981.530029
01/01/2000,00:09:53.687,-933,-443,-31,985,-947,-231,636,0,187,24.500000,56.299999,981.530029
01/01/2000,00:09:53.697,-854,-529,-148,1316,-982,0,631,1,187,24.500000,56.299999,981.530029
01/01/2000,00:09:53.706,-830,-549,-183,1253,-879,159,598,-28,198,24.500000,56.299999,981.530029
01/01/2000,00:09:53.719,-844,-573,-198,1044,-655,197,618,-6,190,24.500000,56.299999,981.530029
01/01/2000,00:09:53.724,-926,-647,-149,721,-232,139,618,-6,190,24.500000,56.299999,981.530029
01/01/2000,00:09:53.734,-1020,-753,-87,364,300,146,624,-27,198,24.500000,56.299999,981.530029
01/01/2000,00:09:53.744,-1134,-819,-25,112,778,203,628,-28,192,24.500000,56.299999,981.530029
01/01/2000,00:09:53.753,-1218,-799,91,-21,987,323,616,-51,184,24.500000,56.299999,981.530029
01/01/2000,00:09:53.762,-1212,-637,336,-87,768,482,628,-48,195,24.500000,56.299999,981.530029
01/01/2000,00:09:53.772,-1193,-418,453,-72,-88,492,612,-60,183,24.500000,56.299999,981.530029
01/01/2000,00:09:53.781,-1109,-364,217,53,-1010,511,613,-61,207,24.500000,56.299999,981.530029
01/01/2000,00:09:53.790,-1003,-403,53,53,-1010,511,619,-64,177,24.500000,56.299999,981.530029
01/01/2000,00:09:53.800,-962,-409,109,104,-1024,548,609,-97,184,24.500000,56.299999,981.530029
01/01/2000,00:09:53.809,-944,-343,113,7,-830,625,607,-78,163,24.500000,56.299999,981.530029
01/01/2000,00:09:53.818,-918,-181,198,-116,-958,772,607,-78,163,24.500000,56.299999,981.530029
01/01/2000,00:09:53.827,-926,0,446,-240,-1063,872,616,-94,174,24.500000,56.299999,981.530029
01/01/2000,00:09:53.837,-1169,160,406,-428,-1300,928,582,-88,142,24.500000,56.299999,981.530029
01/01/2000,00:09:53.847,-1395,251,129,-653,-1437,999,591,-102,151,24.500000,56.299999,981.530029
01/01/2000,00:09:53.856,-1382,355,-85,-891,-1311,956,570,-117,139,24.500000,56.299999,981.530029
01/01/2000,00:09:53.865,-1382,355,-85,-899,-1439,829,577,-111,118,24.500000,56.299999,981.530029
01/01/2000,00:09:53.875,-1359,512,-282,-619,-1430,682,556,-123,106,24.500000,56.299999,981.530029
01/01/2000,00:09:53.884,-1506,748,-290,-236,-1074,435,552,-118,93,24.500000,56.299999,981.530029
01/01/2000,00:09:53.893,-1858,1109,-29,341,-894,39,567,-135,90,24.500000,56.299999,981.530029
01/01/2000,00:09:53.903,-2092,1349,245,999,-821,-224,562,-123,97,24.500000,56.299999,981.530029
01/01/2000,00:09:53.912,-2169,1320,417,1701,-430,-346,562,-123,97,24.500000,56.299999,981.530029
01/01/2000,00:09:53.921,-2131,955,586,2416,-327,-449,562,-123,97,24.500000,56.299999,981.530029
01/01/2000,00:09:53.931,-1793,564,540,2799,-909,-257,535,-147,100,24.500000,56.299999,981.530029
01/01/2000,00:09:53.940,-1354,424,385,2866,-1149,-57,534,-178,109,24.500000,56.299999,981.530029
01/01/2000,00:09:53.950,-1063,308,285,2866,-721,193,532,-175,118,24.500000,56.299999,981.530029
01/01/2000,00:09:53.959,-870,156,81,2398,87,383,535,-204,138,24.500000,56.299999,981.530029
01/01/2000,00:09:53.968,-734,4,-114,1237,972,486,531,-195,160,24.500000,56.299999,981.530029
01/01/2000,00:09:53.978,-630,-126,-161,52,1389,453,547,-181,156,24.500000,56.299999,981.530029
01/01/2000,00:09:53.987,-514,-225,-168,-618,1241,353,532,-202,159,24.500000,56.299999,981.530029
01/01/2000,00:09:53.996,-399,-344,-181,-594,571,353,543,-207,163,24.500000,56.299999,981.530029
01/01/2000,00:09:54.005,-342,-465,-198,29,-301,546,543,-207,163,24.500000,56.299999,981.530029
01/01/2000,00:09:54.018,-412,-509,-220,887,-939,790,529,-213,151,24.500000,56.299999,981.530029
01/01/2000,00:09:54.025,-566,-499,-148,1562,-1143,918,525,-220,133,24.500000,56.299999,981.530029
01/01/2000,00:09:54.034,-705,-480,-6,1849,-1089,811,511,-223,142,24.500000,56.299999,981.530029
01/01/2000,00:09:54.043,-762,-498,173,1727,-979,588,523,-234,150,24.500000,56.299999,981.530029
01/01/2000,00:09:54.053,-738,-551,340,1357,-1028,415,511,-234,156,24.500000,56.299999,981.530029
01/01/2000,00:09:54.062,-666,-579,437,831,-1164,284,501,-252,168,24.500000,56.299999,981.530029
01/01/2000,00:09:54.071,-542,-575,409,292,-1180,181,498,-256,163,24.500000,56.299999,981.530029
01/01/2000,00:09:54.080,-405,-547,279,-185,-841,121,493,-264,175,24.500000,56.299999,981.530029
01/01/2000,00:09:54.090,-349,-466,131,-511,-315,12,493,-264,175,24.500000,56.299999,981.530029
01/01/2000,00:09:54.099,-339,-355,-22,-591,119,-133,495,-253,145,24.500000,56.299999,981.530029
01/01/2000,00:09:54.109,-322,-266,-139,-513,439,-279,481,-240,132,24.500000,56.299999,981.530029
01/01/2000,00:09:54.118,-308,-204,-183,-464,609,-361,475,-244,156,24.500000,56.299999,981.530029
01/01/2000,00:09:54.128,-289,-130,-189,-449,640,-417,480,-262,142,24.500000,56.299999,981.530029
01/01/2000,00:09:54.137,-250,-40,-165,-449,640,-417,499,-252,157,24.500000,56.299999,981.530029
01/01/2000,00:09:54.146,-256,11,-67,-380,585,-487,505,-249,139,24.500000,56.299999,981.530029
01/01/2000,00:09:54.156,-362,5,140,-307,539,-490,508,-240,141,24.500000,56.299999,981.530029
01/01/2000,00:09:54.165,-574,-53,477,-319,585,-466,507,-238,151,24.500000,56.299999,981.530029
01/01/2000,00:09:54.174,-948,-141,706,-429,592,-412,520,-229,127,24.500000,56.299999,981.530029
01/01/2000,00:09:54.183,-948,-141,706,-547,506,-435,520,-229,127,24.500000,56.299999,981.530029
01/01/2000,00:09:54.193,-1433,-333,537,-334,1114,-585,511,-220,145,24.500000,56.299999,981.530029
01/01/2000,00:09:54.203,-1880,-625,362,275,1806,-281,522,-211,141,24.500000,56.299999,981.530029
01/01/2000,00:09:54.215,-1880,-625,362,1134,1519,216,532,-220,165,24.500000,56.299999,981.530029
01/01/2000,00:09:54.221,-1789,-531,621,1867,1162,591,538,-219,171,24.500000,56.299999,981.530029
01/01/2000,00:09:54.231,-1698,-330,1076,2551,930,861,514,-232,189,24.500000,56.299999,981.530029
01/01/2000,00:09:54.240,-1613,-94,1285,2831,482,857,537,-270,219,24.500000,56.299999,981.530029
01/01/2000,00:09:54.249,-1360,66,714,2866,222,517,514,-261,223,24.500000,56.299999,981.530029
01/01/2000,00:09:54.259,-1139,154,-44,2866,300,106,523,-264,255,24.500000,56.299999,981.530029
01/01/2000,00:09:54.268,-1181,198,37,2557,183,-274,510,-258,265,24.500000,56.299999,981.530029
01/01/2000,00:09:54.277,-1482,304,15,1247,167,-944,510,-258,265,24.500000,56.299999,981.530029
01/01/2000,00:09:54.286,-1615,462,-536,306,997,-1380,523,-243,285,24.500000,56.299999,981.530029
01/01/2000,00:09:54.296,-1469,599,-648,58,823,-1189,531,-235,283,24.500000,56.299999,981.530029
01/01/2000,00:09:54.306,-1327,721,-562,21,-11,-832,546,-243,291,24.500000,56.299999,981.530029
01/01/2000,00:09:54.315,-1188,763,-570,-205,-374,-672,528,-241,301,24.500000,56.299999,981.530029
01/01/2000,00:09:54.324,-1047,704,-538,-550,-287,-486,549,-216,292,24.500000,56.299999,981.530029
01/01/2000,00:09:54.334,-944,622,-552,-714,-169,-291,528,-226,274,24.500000,56.299999,981.530029
01/01/2000,00:09:54.343,-925,605,-624,-404,20,-280,550,-226,270,24.500000,56.299999,981.530029
01/01/2000,00:09:54.352,-900,549,-660,279,250,-366,556,-232,285,24.500000,56.299999,981.530029
01/01/2000,00:09:54.362,-905,394,-600,833,398,-327,534,-231,288,24.500000,56.299999,981.530029
01/01/2000,00:09:54.371,-965,225,-479,1038,376,-300,534,-231,288,24.500000,56.299999,981.530029
01/01/2000,00:09:54.380,-1025,112,-366,1180,73,-229,547,-228,271,24.500000,56.299999,981.530029
01/01/2000,00:09:54.390,-1090,-50,-202,1590,-661,-107,558,-237,300,24.500000,56.299999,981.530029
01/01/2000,00:09:54.399,-1248,-258,-162,2181,-461,-195,547,-220,291,24.500000,56.299999,981.530029
01/01/2000,00:09:54.409,-1434,-299,-228,2343,-90,-374,558,-214,312,24.500000,56.299999,981.530029
01/01/2000,00:09:54.418,-1432,-261,-251,2260,-2,-472,562,-216,324,24.500000,56.299999,981.530029
01/01/2000,00:09:54.427,-1296,-264,-259,2219,-22,-449,573,-214,340,24.500000,56.299999,981.530029
01/01/2000,00:09:54.437,-1184,-244,-253,2357,-177,-373,543,-220,324,24.500000,56.299999,981.530029
01/01/2000,00:09:54.447,-1063,-250,-298,2406,-347,-302,543,-220,324,24.500000,57.000000,981.530029
01/01/2000,00:09:54.456,-991,-274,-335,2226,-297,-295,573,-196,358,24.500000,57.000000,981.530029
01/01/2000,00:09:54.464,-1020,-248,-318,1997,-179,-457,573,-196,358,24.500000,57.000000,981.530029
01/01/2000,00:09:54.474,-956,-233,-408,1900,-21,-630,564,-192,387,24.500000,57.000000,981.530029
01/01/2000,00:09:54.484,-855,-322,-451,1900,-21,-630,571,-186,379,24.500000,57.000000,981.530029
01/01/2000,00:09:54.493,-791,-433,-411,1932,127,-635,562,-175,382,24.500000,57.000000,981.530029
01/01/2000,00:09:54.502,-712,-491,-426,1934,119,-474,558,-178,385,24.500000,57.000000,981.530029
01/01/2000,00:09:54.521,-804,-472,-456,1924,317,-249,564,-157,417,24.500000,57.000000,981.530029
01/01/2000,00:09:54.531,-889,-518,-407,2211,409,-340,585,-160,408,24.500000,57.000000,981.530029
01/01/2000,00:09:54.540,-992,-594,-253,2702,397,-440,573,-147,429,24.500000,57.000000,981.530029
01/01/2000,00:09:54.549,-1039,-652,-95,2859,325,-495,570,-136,448,24.500000,57.000000,981.530029
01/01/2000,00:09:54.558,-1039,-652,-95,2866,296,-494,570,-136,448,24.500000,57.000000,981.530029
01/01/2000,00:09:54.568,-1081,-714,5,2866,406,-481,573,-132,454,24.500000,57.000000,981.530029
01/01/2000,00:09:54.577,-1167,-787,-30,2866,1120,-568,567,-106,475,24.500000,57.000000,981.530029
01/01/2000,00:09:54.587,-1239,-937,113,2866,2114,-678,567,-102,499,24.500000,57.000000,981.530029
01/01/2000,00:09:54.596,-1273,-1119,725,2727,2411,-608,570,-79,511,24.500000,57.000000,981.530029
01/01/2000,00:09:54.605,-1286,-1316,1402,2070,801,-478,573,-72,549,24.500000,57.000000,981.530029
01/01/2000,00:09:54.615,-1166,-1308,1153,1166,-890,-226,553,-79,538,24.500000,57.000000,981.530029
01/01/2000,00:09:54.624,-957,-1082,373,591,-1240,-95,567,-66,535,24.500000,57.000000,981.530029
01/01/2000,00:09:54.634,-851,-953,76,210,-899,11,577,-51,534,24.500000,57.000000,981.530029
01/01/2000,00:09:54.642,-878,-821,1,-126,-543,171,577,-51,534,24.500000,57.000000,981.530029
01/01/2000,00:09:54.652,-958,-639,-54,-268,-272,269,577,-55,529,24.500000,57.000000,981.530029
01/01/2000,00:09:54.662,-992,-497,-59,-138,-299,324,576,-75,526,24.500000,57.000000,981.530029
01/01/2000,00:09:54.671,-928,-407,33,62,-364,397,567,-76,504,24.500000,57.000000,981.530029
01/01/2000,00:09:54.680,-868,-362,283,110,-435,523,604,-66,511,24.500000,57.000000,981.530029
01/01/2000,00:09:54.690,-863,-342,422,-84,-856,665,574,-75,514,24.500000,57.000000,981.530029
01/01/2000,00:09:54.699,-866,-349,247,-414,-1277,796,594,-69,496,24.500000,57.000000,981.530029
01/01/2000,00:09:54.709,-838,-338,20,-698,-1262,944,573,-94,493,24.500000,57.000000,981.530029
01/01/2000,00:09:54.718,-783,-267,-21,-944,-781,1070,577,-91,502,24.500000,57.000000,981.530029
01/01/2000,00:09:54.727,-814,-153,58,-1255,-386,1148,573,-114,465,24.500000,57.000000,981.530029
01/01/2000,00:09:54.736,-910,-26,108,-1484,-390,1123,573,-114,465,24.500000,57.000000,981.530029
01/01/2000,00:09:54.745,-957,84,153,-1460,-928,1126,574,-114,483,24.500000,57.000000,981.530029
01/01/2000,00:09:54.755,-975,160,143,-1319,-1440,1150,567,-103,439,24.500000,57.000000,981.530029
01/01/2000,00:09:54.765,-1083,169,26,-1151,-1456,1275,573,-144,450,24.500000,57.000000,981.530029
01/01/2000,00:09:54.774,-1388,195,-83,-805,-1349,1414,573,-144,450,24.500000,57.000000,981.530029
01/01/2000,00:09:54.783,-1880,336,-164,-121,-1385,1283,567,-127,415,24.500000,57.000000,981.530029
01/01/2000,00:09:54.793,-2341,559,-116,672,-1367,1000,568,-153,402,24.500000,57.000000,981.530029
01/01/2000,00:09:54.802,-2710,889,76,1301,-1081,474,565,-163,394,24.500000,57.000000,981.530029
01/01/2000,00:09:54.815,-2754,1107,269,1301,-1081,474,562,-163,400,24.500000,57.000000,981.530029
01/01/2000,00:09:54.821,-2265,1037,371,1598,-647,-163,571,-145,391,24.500000,57.000000,981.530029
01/01/2000,00:09:54.830,-1709,894,396,1776,-238,-198,571,-145,391,24.500000,57.000000,981.530029
01/01/2000,00:09:54.839,-1291,752,367,2370,-725,25,586,-132,408,24.500000,57.000000,981.530029
01/01/2000,00:09:54.849,-906,556,184,2782,-1255,85,558,-136,411,24.500000,57.000000,981.530029
01/01/2000,00:09:54.858,-628,291,-10,2453,-811,111,592,-147,403,24.500000,57.000000,981.530029
01/01/2000,00:09:54.868,-526,166,-95,1453,36,226,571,-135,411,24.500000,57.000000,981.530029
01/01/2000,00:09:54.877,-482,109,-136,288,530,356,562,-141,418,24.500000,57.000000,981.530029
01/01/2000,00:09:54.887,-449,-109,-117,-297,332,386,589,-150,423,24.500000,57.000000,981.530029
01/01/2000,00:09:54.896,-566,-298,-1,-3,-373,600,555,-153,411,24.500000,57.000000,981.530029
01/01/2000,00:09:54.905,-566,-298,-1,708,-1057,889,565,-150,426,24.500000,57.000000,981.530029
01/01/2000,00:09:54.914,-725,-353,166,1147,-1384,1028,567,-142,403,24.500000,57.000000,981.530029
01/01/2000,00:09:54.923,-749,-411,270,1141,-1391,1013,567,-142,403,24.500000,57.000000,981.530029
01/01/2000,00:09:54.933,-672,-501,294,869,-1239,978,577,-156,391,24.500000,57.000000,981.530029
01/01/2000,00:09:54.943,-605,-560,247,505,-1012,961,565,-157,403,24.500000,57.000000,981.530029
01/01/2000,00:09:54.952,-602,-565,164,186,-790,908,565,-163,403,24.500000,57.000000,981.530029
01/01/2000,00:09:54.961,-627,-531,91,14,-686,788,549,-172,388,24.500000,57.000000,981.530029
01/01/2000,00:09:54.971,-623,-518,59,-85,-700,697,549,-172,388,24.500000,57.000000,981.530029
01/01/2000,00:09:54.980,-601,-522,68,-228,-824,646,558,-189,388,24.500000,57.000000,981.530029
01/01/2000,00:09:54.990,-578,-493,88,-378,-990,590,538,-189,363,24.500000,57.000000,981.530029
01/01/2000,00:09:54.999,-525,-460,115,-528,-1135,496,543,-184,352,24.500000,57.000000,981.530029
01/01/2000,00:09:55.008,-450,-425,126,-706,-1099,360,534,-177,346,24.500000,57.000000,981.530029
01/01/2000,00:09:55.017,-419,-365,124,-907,-788,167,534,-177,346,24.500000,57.000000,981.530029
01/01/2000,00:09:55.026,-456,-282,103,-1028,-242,-130,553,-187,342,24.500000,57.000000,981.530029
01/01/2000,00:09:55.036,-498,-214,106,-997,315,-432,556,-181,339,24.500000,57.000000,981.530029
01/01/2000,00:09:55.046,-503,-166,187,-889,569,-568,573,-195,336,24.500000,57.000000,981.530029
01/01/2000,00:09:55.055,-469,-136,330,-866,523,-543,562,-189,351,24.500000,57.000000,981.530029
01/01/2000,00:09:55.065,-425,-147,451,-1017,394,-457,562,-178,336,24.500000,57.000000,981.530029
01/01/2000,00:09:55.074,-407,-220,446,-1219,436,-406,567,-175,316,24.500000,57.000000,981.530029
01/01/2000,00:09:55.083,-483,-371,396,-1257,757,-349,568,-180,324,24.500000,57.000000,981.530029
01/01/2000,00:09:55.093,-771,-630,282,-968,1304,-217,565,-178,339,24.500000,57.000000,981.530029
01/01/2000,00:09:55.102,-1332,-872,135,-177,1727,68,571,-171,318,24.500000,57.000000,981.530029
01/01/2000,00:09:55.120,-2158,-811,666,1272,602,371,565,-183,348,24.500000,57.000000,981.530029
01/01/2000,00:09:55.130,-2071,-326,1028,919,10,301,561,-171,352,24.500000,57.000000,981.530029
01/01/2000,00:09:55.139,-1945,218,780,238,-50,-350,561,-168,355,24.500000,57.000000,981.530029
01/01/2000,00:09:55.149,-1556,393,146,96,365,-833,573,-172,352,24.500000,57.000000,981.530029
01/01/2000,00:09:55.158,-1233,432,-270,515,666,-884,571,-157,358,24.500000,57.000000,981.530029
01/01/2000,00:09:55.171,-1294,462,-273,1007,802,-784,577,-153,370,24.500000,57.000000,981.530029
01/01/2000,00:09:55.177,-1475,446,274,1007,802,-784,579,-148,388,24.500000,57.000000,981.530029
01/01/2000,00:09:55.186,-1395,528,270,720,286,-823,571,-141,373,24.500000,57.000000,981.530029
01/01/2000,00:09:55.196,-1017,703,-481,-51,-242,-1026,600,-138,384,24.500000,57.000000,981.530029
01/01/2000,00:09:55.204,-775,736,-850,-52,72,-996,600,-138,384,24.500000,57.000000,981.530029
01/01/2000,00:09:55.214,-689,625,-697,425,578,-713,585,-142,388,24.500000,57.000000,981.530029
01/01/2000,00:09:55.224,-546,517,-519,516,826,-643,589,-123,387,24.500000,57.000000,981.530029
01/01/2000,00:09:55.233,-432,456,-471,355,782,-615,582,-112,403,24.500000,57.000000,981.530029
01/01/2000,00:09:55.243,-456,413,-408,277,794,-615,600,-130,387,24.500000,57.000000,981.530029
01/01/2000,00:09:55.252,-456,413,-408,317,781,-746,595,-103,406,24.500000,57.000000,981.530029
01/01/2000,00:09:55.261,-581,312,-325,415,473,-940,589,-105,418,24.500000,57.000000,981.530029
01/01/2000,00:09:55.271,-706,159,-330,511,92,-962,606,-114,423,24.500000,57.000000,981.530029
01/01/2000,00:09:55.280,-855,8,-311,441,-223,-795,585,-84,408,24.500000,57.000000,981.530029
01/01/2000,00:09:55.289,-1096,-103,-225,19,-702,-539,600,-99,408,24.500000,57.000000,981.530029
01/01/2000,00:09:55.298,-1358,-193,-225,-583,-1086,-424,600,-99,408,24.500000,57.000000,981.530029
01/01/2000,00:09:55.308,-1418,-491,-372,-477,-11,-487,612,-91,408,24.500000,57.000000,981.530029
01/01/2000,00:09:55.321,-1355,-842,-201,755,1316,-461,594,-97,406,24.500000,57.000000,981.530029
01/01/2000,00:09:55.327,-1215,-932,251,1644,1354,-438,583,-58,445,24.500000,57.000000,981.530029
01/01/2000,00:09:55.336,-883,-811,383,1659,800,-339,594,-88,438,24.500000,57.000000,981.530029
01/01/2000,00:09:55.346,-643,-580,436,1097,472,-168,586,-54,444,24.500000,57.000000,981.530029
01/01/2000,00:09:55.355,-619,-357,501,268,50,-142,606,-60,430,24.500000,57.000000,981.530029
01/01/2000,00:09:55.364,-563,-251,307,-367,-400,-137,601,-40,442,24.500000,57.000000,981.530029
01/01/2000,00:09:55.374,-456,-242,-44,-601,-679,39,598,-52,436,24.500000,57.000000,981.530029
01/01/2000,00:09:55.383,-470,-96,-594,-104,-690,128,612,-78,444,24.500000,57.000000,981.530029
01/01/2000,00:09:55.392,-466,106,-1072,1310,-257,21,612,-78,444,24.500000,57.000000,981.530029
01/01/2000,00:09:55.401,-464,191,-1028,2581,162,29,598,-58,427,24.500000,57.000000,981.530029
01/01/2000,00:09:55.411,-611,253,-714,2866,360,-17,603,-73,451,24.500000,57.000000,981.530029
01/01/2000,00:09:55.421,-761,303,-188,2866,1037,-297,591,-60,445,24.500000,57.000000,981.530029
01/01/2000,00:09:55.430,-955,380,483,1542,2463,-729,598,-45,457,24.500000,57.000000,981.530029
01/01/2000,00:09:55.439,-1228,451,873,-659,2866,-949,607,-15,474,24.500000,57.000000,981.530029
01/01/2000,00:09:55.449,-1473,192,1114,-1772,2102,-1095,576,-25,514,24.500000,57.000000,981.530029
01/01/2000,00:09:55.458,-1366,-154,780,-256,373,-628,570,-9,520,24.500000,57.000000,981.530029
01/01/2000,00:09:55.467,-1073,-260,178,1479,-849,-235,576,-21,514,24.500000,57.000000,981.530029
01/01/2000,00:09:55.477,-987,-327,10,1986,-1454,-115,583,3,516,24.500000,57.000000,981.530029
01/01/2000,00:09:55.486,-1044,-419,-99,1700,-1547,-42,583,3,516,24.500000,57.000000,981.530029
01/01/2000,00:09:55.496,-1186,-497,-244,1255,-1335,-29,586,13,510,24.500000,56.099998,981.500000
01/01/2000,00:09:55.505,-1298,-547,-412,882,-816,-132,598,3,502,24.500000,56.099998,981.500000
01/01/2000,00:09:55.514,-1347,-670,-464,462,-87,-264,603,7,495,24.500000,56.099998,981.500000
01/01/2000,00:09:55.524,-1372,-859,-343,462,-87,-264,583,21,510,24.500000,56.099998,981.500000
01/01/2000,00:09:55.533,-1374,-1003,-46,44,617,-259,583,13,511,24.500000,56.099998,981.500000
01/01/2000,00:09:55.542,-1424,-1021,613,45,1690,-323,592,10,519,24.500000,56.099998,981.500000
01/01/2000,00:09:55.552,-1501,-842,916,439,1575,-187,592,28,523,24.500000,56.099998,981.500000
01/01/2000,00:09:55.561,-1405,-678,555,428,276,10,600,18,519,24.500000,56.099998,981.500000
01/01/2000,00:09:55.570,-1405,-678,555,223,-583,95,600,18,519,24.500000,56.099998,981.500000
01/01/2000,00:09:55.579,-1201,-681,205,14,-1013,126,591,43,528,24.500000,56.099998,981.500000
01/01/2000,00:09:55.589,-1018,-820,44,-244,-977,123,610,30,499,24.500000,56.099998,981.500000
01/01/2000,00:09:55.599,-1018,-820,44,-547,-471,115,598,12,502,24.500000,56.099998,981.500000
01/01/2000,00:09:55.608,-1024,-817,189,-854,-504,218,600,9,508,24.500000,56.099998,981.500000
01/01/2000,00:09:55.620,-1036,-700,204,-1135,-855,341,604,15,504,24.500000,56.099998,981.500000
01/01/2000,00:09:55.627,-1114,-570,135,-1393,-1119,435,600,18,511,24.500000,56.099998,981.500000
01/01/2000,00:09:55.636,-1184,-479,30,-1554,-1278,547,616,3,481,24.500000,56.099998,981.500000
01/01/2000,00:09:55.645,-1117,-392,-62,-1575,-1292,698,627,-13,472,24.500000,56.099998,981.500000
01/01/2000,00:09:55.655,-973,-264,-102,-1456,-1085,831,621,-24,459,24.500000,56.099998,981.500000
01/01/2000,00:09:55.664,-873,-104,-71,-1264,-781,922,621,-24,459,24.500000,56.099998,981.500000
01/01/2000,00:09:55.674,-842,23,-9,-1120,-676,996,630,-46,466,24.500000,56.099998,981.500000
01/01/2000,00:09:55.683,-836,113,-26,-1063,-780,1013,633,-54,432,24.500000,56.099998,981.500000
01/01/2000,00:09:55.692,-898,179,-139,-949,-883,1000,624,-76,429,24.500000,56.099998,981.500000
01/01/2000,00:09:55.702,-1093,219,-202,-641,-861,988,619,-61,426,24.500000,56.099998,981.500000
01/01/2000,00:09:55.711,-1376,309,-75,-245,-719,971,618,-75,433,24.500000,56.099998,981.500000
01/01/2000,00:09:55.757,-1366,603,-49,1569,-605,279,636,-87,421,24.500000,56.099998,981.500000
01/01/2000,00:09:55.767,-1100,373,-9,1898,-593,149,636,-87,421,24.500000,56.099998,981.500000
01/01/2000,00:09:55.776,-813,38,116,913,-183,211,636,-90,411,24.500000,56.099998,981.500000
01/01/2000,00:09:55.786,-695,-172,139,-525,-106,378,613,-88,417,24.500000,56.099998,981.500000
01/01/2000,00:09:55.795,-732,-275,89,-1402,-426,565,634,-84,406,24.500000,56.099998,981.500000
01/01/2000,00:09:55.805,-777,-381,47,-1612,-1055,537,625,-93,400,24.500000,56.099998,981.500000
01/01/2000,00:09:55.814,-705,-564,-29,-1167,-1397,735,637,-94,409,24.500000,56.099998,981.500000
01/01/2000,00:09:55.823,-702,-642,-28,-399,-1254,997,646,-126,379,24.500000,56.099998,981.500000
01/01/2000,00:09:55.833,-688,-513,144,-115,-838,950,642,-115,376,24.500000,56.099998,981.500000
01/01/2000,00:09:55.842,-545,-327,264,-115,-838,950,646,-118,367,24.500000,56.099998,981.500000
01/01/2000,00:09:55.852,-436,-170,186,-483,-546,756,621,-135,367,24.500000,56.099998,981.500000
01/01/2000,00:09:55.860,-393,-84,65,-1282,-320,494,621,-135,367,24.500000,56.099998,981.500000
01/01/2000,00:09:55.870,-395,-76,4,-1282,-320,494,645,-126,354,24.500000,56.099998,981.500000
01/01/2000,00:09:55.880,-413,-122,-4,-1281,-378,476,613,-127,346,24.500000,56.099998,981.500000
01/01/2000,00:09:55.889,-407,-170,-8,-1224,-446,453,645,-148,342,24.500000,56.099998,981.500000
01/01/2000,00:09:55.898,-391,-183,-23,-1190,-458,391,621,-154,328,24.500000,56.099998,981.500000
01/01/2000,00:09:55.908,-398,-160,-38,-1155,-354,291,618,-142,315,24.500000,56.099998,981.500000
01/01/2000,00:09:55.917,-420,-120,-51,-1072,-147,146,610,-154,315,24.500000,56.099998,981.500000
01/01/2000,00:09:55.926,-466,-69,-44,-939,157,-38,624,-145,316,24.500000,56.099998,981.500000
01/01/2000,00:09:55.936,-545,-23,36,-786,536,-236,619,-150,325,24.500000,56.099998,981.500000
01/01/2000,00:09:55.945,-545,-23,36,-644,876,-398,636,-148,313,24.500000,56.099998,981.500000
01/01/2000,00:09:55.954,-630,-23,207,-604,1049,-448,636,-148,313,24.500000,56.099998,981.500000
01/01/2000,00:09:55.963,-713,-41,386,-720,990,-378,625,-123,346,24.500000,56.099998,981.500000
01/01/2000,00:09:55.973,-822,-63,535,-880,723,-275,639,-145,319,24.500000,56.099998,981.500000
01/01/2000,00:09:55.983,-1020,-157,616,-860,387,-237,642,-144,331,24.500000,56.099998,981.500000
01/01/2000,00:09:55.992,-1271,-487,486,-346,449,-138,639,-132,324,24.500000,56.099998,981.500000
01/01/2000,00:09:56.005,-1530,-996,347,333,824,199,636,-145,327,24.500000,56.099998,981.500000
01/01/2000,00:09:56.011,-1883,-1269,594,538,852,568,619,-141,340,24.500000,56.099998,981.500000
01/01/2000,00:09:56.020,-2068,-1120,985,88,412,699,630,-130,339,24.500000,56.099998,981.500000
01/01/2000,00:09:56.030,-1803,-602,1003,-482,-111,744,613,-153,348,24.500000,56.099998,981.500000
01/01/2000,00:09:56.039,-1506,38,687,-578,-450,812,637,-154,324,24.500000,56.099998,981.500000
01/01/2000,00:09:56.048,-1557,415,259,-153,-56,544,637,-154,324,24.500000,56.099998,981.500000
01/01/2000,00:09:56.058,-1537,262,-10,450,466,279,621,-162,342,24.500000,56.099998,981.500000
01/01/2000,00:09:56.067,-1434,18,-8,701,153,5,627,-178,343,24.500000,56.099998,981.500000
01/01/2000,00:09:56.076,-1436,63,-40,680,-382,-378,630,-132,354,24.500000,56.099998,981.500000
01/01/2000,00:09:56.086,-1320,128,-81,449,-453,-735,624,-160,334,24.500000,56.099998,981.500000
01/01/2000,00:09:56.095,-1090,160,-99,124,7,-944,606,-147,357,24.500000,56.099998,981.500000
01/01/2000,00:09:56.104,-890,236,-198,62,348,-875,621,-166,366,24.500000,56.099998,981.500000
01/01/2000,00:09:56.114,-826,448,-360,182,382,-695,616,-135,355,24.500000,56.099998,981.500000
01/01/2000,00:09:56.123,-798,685,-585,304,606,-670,637,-151,357,24.500000,56.099998,981.500000
01/01/2000,00:09:56.132,-705,726,-625,432,980,-643,637,-151,357,24.500000,56.099998,981.500000
01/01/2000,00:09:56.141,-576,620,-350,428,994,-537,628,-126,358,24.500000,56.099998,981.500000
01/01/2000,00:09:56.151,-545,549,-86,228,643,-557,643,-139,381,24.500000,56.099998,981.500000
01/01/2000,00:09:56.161,-674,429,-95,51,403,-791,643,-120,397,24.500000,56.099998,981.500000
01/01/2000,00:09:56.170,-795,207,-186,-70,297,-925,643,-120,397,24.500000,56.099998,981.500000
01/01/2000,00:09:56.179,-883,39,-209,-345,104,-920,640,-117,388,24.500000,56.099998,981.500000
01/01/2000,00:09:56.189,-1053,-33,-242,-754,-228,-888,655,-87,381,24.500000,56.099998,981.500000
01/01/2000,00:09:56.198,-1217,-69,-337,-1025,-473,-932,655,-105,385,24.500000,56.099998,981.500000
01/01/2000,00:09:56.208,-1293,-157,-376,-1025,-473,-932,652,-97,370,24.500000,56.099998,981.500000
01/01/2000,00:09:56.217,-1261,-352,-398,-1038,-393,-849,654,-93,372,24.500000,56.099998,981.500000
01/01/2000,00:09:56.226,-1236,-506,-258,-569,328,-594,654,-93,372,24.500000,56.099998,981.500000
01/01/2000,00:09:56.235,-1160,-577,130,621,1186,-368,657,-79,372,24.500000,56.099998,981.500000
01/01/2000,00:09:56.245,-974,-593,414,1570,1264,-298,654,-70,393,24.500000,56.099998,981.500000
01/01/2000,00:09:56.254,-803,-497,438,1761,842,-216,661,-73,415,24.500000,56.099998,981.500000
01/01/2000,00:09:56.264,-721,-377,345,1492,456,-93,654,-84,415,24.500000,56.099998,981.500000
01/01/2000,00:09:56.273,-752,-305,327,1024,395,12,654,-79,405,24.500000,56.099998,981.500000
01/01/2000,00:09:56.282,-753,-319,320,466,339,52,654,-60,415,24.500000,56.099998,981.500000
01/01/2000,00:09:56.292,-753,-319,320,-130,26,125,643,-76,444,24.500000,56.099998,981.500000
01/01/2000,00:09:56.304,-729,-299,212,-599,-224,184,646,-79,414,24.500000,56.099998,981.500000
01/01/2000,00:09:56.311,-723,-197,38,-793,-279,154,630,-81,438,24.500000,56.099998,981.500000
01/01/2000,00:09:56.319,-690,-118,-220,-695,-111,90,630,-81,438,24.500000,56.099998,981.500000
01/01/2000,00:09:56.329,-771,52,-495,28,137,-109,634,-81,424,24.500000,56.099998,981.500000
01/01/2000,00:09:56.339,-811,184,-603,1232,230,-321,649,-91,414,24.500000,56.099998,981.500000
01/01/2000,00:09:56.348,-759,150,-561,2258,329,-229,654,-81,412,24.500000,56.099998,981.500000
01/01/2000,00:09:56.367,-870,254,-206,2866,1241,-435,627,-55,448,24.500000,56.099998,981.500000
01/01/2000,00:09:56.376,-871,370,482,1118,2517,-562,628,-45,486,24.500000,56.099998,981.500000
01/01/2000,00:09:56.386,-1111,586,1549,-1188,2866,-568,627,-49,504,24.500000,56.099998,981.500000
01/01/2000,00:09:56.395,-1321,411,1436,-1206,783,-828,619,-43,495,24.500000,56.099998,981.500000
01/01/2000,00:09:56.404,-1194,-101,283,513,-757,-706,619,-40,496,24.500000,56.099998,981.500000
01/01/2000,00:09:56.413,-922,-434,-118,1690,-1399,-400,619,-40,496,24.500000,56.099998,981.500000
01/01/2000,00:09:56.422,-753,-566,-162,1676,-1455,-52,646,-28,478,24.500000,56.099998,981.500000
01/01/2000,00:09:56.432,-718,-593,-256,1222,-1124,155,640,-19,483,24.500000,56.099998,981.500000
01/01/2000,00:09:56.442,-813,-642,-316,865,-693,136,642,-18,475,24.500000,56.099998,981.500000
01/01/2000,00:09:56.451,-1006,-759,-238,489,20,-93,630,-25,469,24.500000,56.099998,981.500000
01/01/2000,00:09:56.460,-1174,-906,-57,33,948,-361,651,-15,477,24.500000,56.099998,981.500000
01/01/2000,00:09:56.470,-1239,-1027,140,-126,1549,-330,640,3,492,24.500000,56.099998,981.500000
01/01/2000,00:09:56.479,-1328,-1055,434,116,1243,-120,639,-12,498,24.500000,56.099998,981.500000
01/01/2000,00:09:56.489,-1428,-895,623,238,164,49,624,-16,519,24.500000,56.099998,981.500000
01/01/2000,00:09:56.498,-1374,-674,457,127,-664,115,636,-9,511,24.500000,56.099998,981.500000
01/01/2000,00:09:56.507,-1251,-627,186,-8,-1246,168,636,-9,511,24.500000,56.099998,981.500000
01/01/2000,00:09:56.517,-1171,-702,-9,-163,-1309,183,618,-12,520,24.500000,56.099998,981.500000
01/01/2000,00:09:56.526,-1098,-790,-29,-443,-856,153,646,-28,501,24.500000,56.099998,981.500000
01/01/2000,00:09:56.535,-1030,-759,0,-815,-831,262,645,-21,492,24.500000,56.400002,981.489990
01/01/2000,00:09:56.545,-948,-632,-53,-1162,-920,401,651,-19,480,24.500000,56.400002,981.489990
01/01/2000,00:09:56.554,-877,-529,-85,-1460,-724,512,651,-39,448,24.500000,56.400002,981.489990
01/01/2000,00:09:56.564,-851,-439,-87,-1460,-724,512,642,-40,475,24.500000,56.400002,981.489990
01/01/2000,00:09:56.573,-852,-325,-20,-1612,-402,615,654,-64,450,24.500000,56.400002,981.489990
01/01/2000,00:09:56.582,-965,-143,189,-1516,-121,743,654,-64,450,24.500000,56.400002,981.489990
01/01/2000,00:09:56.591,-1131,28,302,-1299,-238,879,651,-61,448,24.500000,56.400002,981.489990
01/01/2000,00:09:56.601,-1138,73,138,-1420,-565,978,646,-54,445,24.500000,56.400002,981.489990
01/01/2000,00:09:56.610,-1087,39,-134,-1688,-851,1138,643,-84,423,24.500000,56.400002,981.489990
01/01/2000,00:09:56.620,-1163,25,-335,-1716,-1014,1237,666,-88,429,24.500000,56.400002,981.489990
01/01/2000,00:09:56.629,-1388,110,-388,-1450,-1036,1257,651,-105,400,24.500000,56.400002,981.489990
01/01/2000,00:09:56.639,-1388,110,-388,-995,-958,1242,633,-120,403,24.500000,56.400002,981.489990
01/01/2000,00:09:56.648,-1780,382,-267,-443,-883,1063,633,-111,399,24.500000,56.400002,981.489990
01/01/2000,00:09:56.660,-2169,743,79,97,-792,668,624,-130,382,24.500000,56.400002,981.489990
01/01/2000,00:09:56.667,-2379,1037,391,269,-723,247,643,-147,382,24.500000,56.400002,981.489990
01/01/2000,00:09:56.675,-2176,1080,344,411,-424,128,643,-147,382,24.500000,56.400002,981.489990
01/01/2000,00:09:56.685,-1738,948,179,1172,-653,258,646,-121,381,24.500000,56.400002,981.489990
01/01/2000,00:09:56.695,-1439,824,129,2362,-1191,71,633,-127,379,24.500000,56.400002,981.489990
01/01/2000,00:09:56.704,-1067,525,154,2691,-1008,-197,642,-132,373,24.500000,56.400002,981.489990
01/01/2000,00:09:56.713,-619,73,103,1248,190,-88,655,-121,415,24.500000,56.400002,981.489990
01/01/2000,00:09:56.723,-552,-185,182,-711,711,234,645,-133,394,24.500000,56.400002,981.489990
01/01/2000,00:09:56.732,-629,-259,154,-1637,-82,346,637,-121,363,24.500000,56.400002,981.489990
01/01/2000,00:09:56.742,-542,-397,-54,-1622,-815,479,648,-139,376,24.500000,56.400002,981.489990
01/01/2000,00:09:56.751,-559,-535,-9,-1040,-1369,738,643,-147,372,24.500000,56.400002,981.489990
01/01/2000,00:09:56.760,-640,-591,142,-364,-1808,950,645,-147,355,24.500000,56.400002,981.489990
01/01/2000,00:09:56.769,-659,-591,226,2,-1771,973,645,-147,355,24.500000,56.400002,981.489990
01/01/2000,00:09:56.778,-546,-571,218,-68,-1167,842,646,-156,322,24.500000,56.400002,981.489990
01/01/2000,00:09:56.788,-406,-536,207,-491,-412,778,639,-151,324,24.500000,56.400002,981.489990
01/01/2000,00:09:56.798,-404,-436,198,-932,32,667,631,-175,309,24.500000,56.400002,981.489990
01/01/2000,00:09:56.810,-436,-372,171,-1157,34,519,634,-169,318,24.500000,56.400002,981.489990
01/01/2000,00:09:56.817,-439,-370,118,-1252,-165,465,624,-171,321,24.500000,56.400002,981.489990
01/01/2000,00:09:56.826,-455,-344,58,-1291,-340,411,624,-183,307,24.500000,56.400002,981.489990
01/01/2000,00:09:56.835,-428,-318,12,-1290,-411,317,610,-180,307,24.500000,56.400002,981.489990
01/01/2000,00:09:56.845,-366,-299,-25,-1257,-356,212,636,-186,295,24.500000,56.400002,981.489990
01/01/2000,00:09:56.854,-316,-276,-63,-1199,-184,117,627,-174,288,24.500000,56.400002,981.489990
01/01/2000,00:09:56.863,-299,-226,-112,-1116,68,23,627,-174,288,24.500000,56.400002,981.489990
01/01/2000,00:09:56.872,-318,-131,-167,-962,349,-83,621,-196,271,24.500000,56.400002,981.489990
01/01/2000,00:09:56.882,-382,12,-192,-692,576,-213,615,-192,273,24.500000,56.400002,981.489990
01/01/2000,00:09:56.891,-476,154,-111,-342,674,-377,633,-184,267,24.500000,56.400002,981.489990
01/01/2000,00:09:56.901,-587,204,122,-146,723,-508,642,-186,283,24.500000,56.400002,981.489990
01/01/2000,00:09:56.910,-773,123,445,-146,723,-508,657,-184,286,24.500000,56.400002,981.489990
01/01/2000,00:09:56.920,-1058,-56,654,-330,918,-494,615,-172,295,24.500000,56.400002,981.489990
01/01/2000,00:09:56.929,-1430,-259,723,-558,1186,-428,645,-174,303,24.500000,56.400002,981.489990
01/01/2000,00:09:56.938,-1825,-421,962,-428,1270,-312,636,-174,300,24.500000,56.400002,981.489990
01/01/2000,00:09:56.948,-2050,-536,1212,-372,944,-210,630,-165,304,24.500000,56.400002,981.489990
01/01/2000,00:09:56.966,-1924,-652,1168,-742,57,142,619,-150,321,24.500000,56.400002,981.489990
01/01/2000,00:09:56.976,-1220,-454,707,-659,-99,674,639,-166,288,24.500000,56.400002,981.489990
01/01/2000,00:09:56.985,-1220,-454,707,-234,-251,1264,628,-183,303,24.500000,56.400002,981.489990
01/01/2000,00:09:56.995,-889,-227,392,375,-250,1547,628,-172,271,24.500000,56.400002,981.489990
01/01/2000,00:09:57.004,-611,19,204,679,-266,1468,618,-195,289,24.500000,56.400002,981.489990
01/01/2000,00:09:57.017,-543,357,317,497,-479,823,612,-205,286,24.500000,56.400002,981.489990
01/01/2000,00:09:57.023,-791,379,179,14,165,-243,609,-208,292,24.500000,56.400002,981.489990
01/01/2000,00:09:57.032,-1045,208,-140,52,1012,-1024,612,-186,297,24.500000,56.400002,981.489990
01/01/2000,00:09:57.041,-1239,359,-263,357,848,-1562,616,-183,325,24.500000,56.400002,981.489990
01/01/2000,00:09:57.050,-1584,511,-263,579,38,-2221,616,-183,325,24.500000,56.400002,981.489990
01/01/2000,00:09:57.059,-1998,493,-71,443,-761,-2523,642,-163,295,24.500000,56.400002,981.489990
01/01/2000,00:09:57.069,-2307,447,-7,-61,-1066,-2009,642,-138,318,24.500000,56.400002,981.489990
01/01/2000,00:09:57.079,-1985,333,-173,-261,-1220,-999,661,-127,286,24.500000,56.400002,981.489990
01/01/2000,00:09:57.088,-1273,241,-528,-30,-1064,-302,649,-130,283,24.500000,56.400002,981.489990
01/01/2000,00:09:57.098,-740,201,-823,449,-158,26,642,-141,283,24.500000,56.400002,981.489990
01/01/2000,00:09:57.107,-397,110,-762,835,1090,176,655,-141,309,24.500000,56.400002,981.489990
01/01/2000,00:09:57.116,-241,22,-506,885,1860,149,636,-123,324,24.500000,56.400002,981.489990
01/01/2000,00:09:57.126,-156,-104,-160,555,1720,73,667,-126,318,24.500000,56.400002,981.489990
01/01/2000,00:09:57.134,-216,-280,128,43,441,107,667,-126,318,24.500000,56.400002,981.489990
01/01/2000,00:09:57.144,-509,-427,11,-667,-620,102,643,-138,322,24.500000,56.400002,981.489990
