F1_MEAN_on_ACC_X,F5_VAR_on_ACC_X,F9_MIN_on_ACC_X,F13_MAX_on_ACC_X,F2_MEAN_on_ACC_Y,F6_VAR_on_ACC_Y,F10_MIN_on_ACC_Y,F14_MAX_on_ACC_Y,F3_MEAN_on_ACC_Z,F7_VAR_on_ACC_Z,F11_MIN_on_ACC_Z,F15_MAX_on_ACC_Z,F4_MEAN_on_ACC_V,F8_VAR_on_ACC_V,F12_MIN_on_ACC_V,F16_MAX_on_ACC_V,class
0.0018461538461538465,1.841715976331361e-06,-0.001,0.006,0.01869230769230769,1.751479289940829e-06,0.016,0.022,0.993798076923077,1.7957655316092058e-06,0.991,0.997,0.9939773781833918,1.7889673630255842e-06,0.9911634577606259,0.9971644799129179,Mirovanje
0.001528846153846154,1.34532174556213e-06,-0.001,0.004,0.01838461538461538,2.198224852071229e-06,0.014,0.022,0.994048076923077,2.3726886090313926e-06,0.991,0.998,0.9942210355266137,2.3594394646941907e-06,0.9911826269663931,0.9981813462492675,Mirovanje
0.0019423076923076924,1.6312869822485203e-06,0.0,0.005,0.018326923076923074,1.5661982248523767e-06,0.016,0.022,0.9943942307692306,1.950351332102862e-06,0.991,0.998,0.9945666002558623,1.9603478036422928e-06,0.9911715290503456,0.998200881586467,Mirovanje
0.0015576923076923077,6.515902366863903e-06,-0.012,0.012,0.01831730769230769,2.9858542899410334e-06,0.011,0.025,0.9936153846153846,4.8948224852018996e-05,0.951,1.01,0.9937901607233329,4.904914180015041e-05,0.9511393168195708,1.0103113381527498,Mirovanje
0.0015,2.0769230769230764e-06,-0.001,0.005,0.018451923076923074,2.401534763313729e-06,0.014,0.022,0.994625,8.157451922952141e-06,0.986,1.01,0.994799513042378,8.178850647522218e-06,0.9861830458895549,1.0101791920248604,Mirovanje
0.0014903846153846156,1.8845229289940826e-06,-0.001,0.005,0.01863461538461538,1.7703402366865402e-06,0.015,0.021,0.994173076923077,2.258505916397091e-06,0.991,0.999,0.9943506536343519,2.2680015524523256e-06,0.9912063357343919,0.9991446341746524,Mirovanje
0.0019615384615384616,2.1523668639053263e-06,0.0,0.007,0.01844230769230769,2.1312869822488344e-06,0.014,0.021,0.9942884615384615,1.4360207097885436e-06,0.992,0.998,0.9944635636700003,1.4513019940265437e-06,0.9921370873019514,0.9981853535290928,Mirovanje
0.0018653846153846155,2.1934171597633136e-06,-0.002,0.005,0.018749999999999996,2.0913461538462188e-06,0.015,0.022,0.994028846153846,1.6049371306392501e-06,0.99,0.996,0.9942095664036468,1.6169176262348373e-06,0.990168167535192,0.996244949798994,Mirovanje
0.0018365384615384615,2.0982803254437893e-06,-0.001,0.005,0.01846153846153846,1.652366863905564e-06,0.015,0.021,0.9942884615384615,2.878328402400321e-06,0.989,1.0,0.9944634199920233,2.881297768486668e-06,0.9892355634529119,1.0002204756952338,Mirovanje
0.0018846153846153848,1.7559171597633161e-06,0.0,0.005,0.018125,2.3978365384617764e-06,0.015,0.022,0.9944807692307691,1.4227071013506176e-06,0.991,0.997,0.9946497864336382,1.44657828660133e-06,0.991121586890327,0.997205094250927,Mirovanje
0.0017211538461538466,1.6241678994082836e-06,-0.001,0.005,0.01838461538461538,1.9289940828405116e-06,0.014,0.022,0.994326923076923,1.1431213020607345e-06,0.992,0.997,0.994500147422922,1.139468094324414e-06,0.9921632930117904,0.997205094250927,Mirovanje
0.001721153846153846,1.6818602071005942e-06,0.0,0.005,0.018307692307692306,1.8668639053255305e-06,0.015,0.021,0.9939615384615385,1.6139053253816371e-06,0.991,0.997,0.9941334032096608,1.6131612392555894e-06,0.9911311719444607,0.9972256514951869,Mirovanje
0.00175,1.8413461538461538e-06,-0.002,0.005,0.018471153846153845,1.9030140532545303e-06,0.015,0.021,0.9939711538461538,1.5087832841986781e-06,0.992,0.997,0.994146193570847,1.499654750047874e-06,0.9921501902433925,0.9972010830319028,Mirovanje
0.001557692307692308,2.13128698224852e-06,0.0,0.007,0.018221153846153845,2.1337832840238793e-06,0.014,0.023,0.9945961538461537,1.5292159766255864e-06,0.991,0.998,0.9947664007323229,1.5483586747189193e-06,0.9911679978691806,0.9981452800068735,Mirovanje
0.0013653846153846155,1.3472633136094658e-06,0.0,0.005,0.018269230769230767,1.6390532544380797e-06,0.015,0.021,0.9941249999999999,2.0324519235392913e-06,0.991,0.998,0.9942952967082519,2.026405388155794e-06,0.9911478194497529,0.9981447790776646,Mirovanje
0.0016250000000000004,2.003605769230772e-06,-0.001,0.005,0.01850961538461538,2.115292159763412e-06,0.015,0.022,0.993875,1.6286057690217959e-06,0.991,0.998,0.9940507459138541,1.6241634946956296e-06,0.9912017958014402,0.9981813462492675,Mirovanje
0.0017403846153846154,1.6345229289940846e-06,-0.001,0.005,0.018182692307692306,2.6108542899411463e-06,0.015,0.021,0.9940096153846155,1.7979844666449196e-06,0.991,0.997,0.9941795632390293,1.794114775965916e-06,0.9911679978691806,0.9972291612262449,Mirovanje
0.0018269230769230771,1.720044378698226e-06,0.0,0.005,0.018288461538461535,2.1090976331363605e-06,0.015,0.021,0.9937788461538463,1.864552513497486e-06,0.991,0.998,0.9939507177033614,1.865007742241076e-06,0.9911821225183594,0.9981643151305299,Mirovanje
0.001951923076923077,1.9496116863905336e-06,0.0,0.005,0.018432692307692306,2.130085059171764e-06,0.014,0.024,0.9940384615384615,1.5754437875381555e-06,0.992,0.997,0.9942133150738848,1.5764374891036326e-06,0.9921008013301874,0.9971704969562628,Mirovanje
0.0017788461538461539,1.7876294378698236e-06,-0.001,0.006,0.01854807692307692,1.805380917159862e-06,0.015,0.022,0.9941346153846153,2.1934171591242446e-06,0.991,0.998,0.9943110374829349,2.176124225039544e-06,0.9911503417746472,0.9981643151305299,Mirovanje
0.0016538461538461542,2.130177514792902e-06,-0.001,0.006,0.018346153846153842,1.8032544378701154e-06,0.015,0.023,0.9940192307692308,1.6727070999422722e-06,0.991,0.997,0.9941918776750547,1.6642111025921835e-06,0.9911947336421839,0.9972231445368684,Mirovanje
0.0018365384615384615,2.4252034023668643e-06,0.0,0.006,0.01829807692307692,2.3630732248521437e-06,0.015,0.022,0.9936057692307692,3.10419748572599e-06,0.989,0.999,0.9937783482702179,3.104124701391875e-06,0.9891481183321333,0.9991886708725235,Mirovanje
0.0018076923076923077,2.2322485207100616e-06,-0.002,0.006,0.017894230769230766,1.8830436390535749e-06,0.014,0.022,0.9940673076923076,2.024315828186296e-06,0.991,0.997,0.9942320612978082,2.0313644345515414e-06,0.9911311719444607,0.9971855394057818,Mirovanje
0.0017211538461538464,1.643398668639055e-06,-0.001,0.005,0.018163461538461538,2.040588017751543e-06,0.014,0.022,0.9942211538461538,1.3453217453385236e-06,0.991,0.998,0.9943903914816179,1.3550982652654753e-06,0.9911296585210232,0.9981813462492675,Mirovanje
0.0020865384615384617,2.4636649408284017e-06,-0.001,0.006,0.01821153846153846,2.3206360946747e-06,0.014,0.023,0.9940673076923076,1.4666235205185174e-06,0.991,0.997,0.9942387033639383,1.4776562714535757e-06,0.9911417658438171,0.9971890492780193,Mirovanje
0.0018076923076923077,1.4822485207100603e-06,0.0,0.005,0.018249999999999995,2.495192307692593e-06,0.015,0.023,0.9938269230769231,1.4123520708508863e-06,0.991,0.997,0.9939981203763393,1.4097652281108708e-06,0.991121586890327,0.9971469299957755,Mirovanje
0.0018942307692307694,1.883043639053256e-06,-0.001,0.006,0.01823076923076923,2.1198224852070824e-06,0.014,0.021,0.9941634615384616,1.617511094620383e-06,0.99,0.997,0.9943344237079178,1.6115217504886203e-06,0.9901843262746588,0.9971494371457069,Mirovanje
0.0018365384615384615,1.8675110946745581e-06,-0.001,0.005,0.01850961538461538,1.922984467455811e-06,0.016,0.022,0.9938269230769231,1.7392751475719948e-06,0.989,0.997,0.994002878509025,1.7390542342843318e-06,0.9892027092562979,0.9972005816283903,Mirovanje
0.0015961538461538463,2.0292159763313626e-06,0.0,0.006,0.018144230769230767,2.219582100591931e-06,0.014,0.022,0.9939423076923076,1.7851331359786116e-06,0.991,0.997,0.9941113187154129,1.791771133574649e-06,0.9911478194497529,0.9971750097149447,Mirovanje
0.0017211538461538464,2.75878328402367e-06,-0.004,0.007,0.018307692307692306,5.17455621301796e-06,0.013,0.024,0.994076923076923,7.70562130214536e-06,0.984,1.002,0.9942509482792052,7.753768978213671e-06,0.9841224517304745,1.0021447001306747,Mirovanje
0.0015961538461538465,1.6061390532544384e-06,-0.002,0.005,0.01769230769230769,2.559171597633415e-06,0.013,0.022,0.9940192307692306,2.1342455621686796e-06,0.99,0.998,0.9941800499870215,2.1243616494803774e-06,0.9902019995940222,0.9981287492102409,Mirovanje
0.002259615384615385,2.1152921597633113e-06,0.0,0.005,0.018240384615384613,2.3749075443787603e-06,0.015,0.022,0.9939326923076923,1.7935465977947374e-06,0.99,0.997,0.9941048789921637,1.787640898642806e-06,0.9901868510538806,0.9971133335784854,Mirovanje
0.001605769230769231,1.4888128698224851e-06,-0.001,0.005,0.01849038461538461,1.5768306213020857e-06,0.016,0.022,0.9938173076923077,1.5723927506705593e-06,0.991,0.997,0.9939921425897382,1.572392938520295e-06,0.9911478194497529,0.9971529471450205,Mirovanje
0.0017692307692307693,1.7544378698224882e-06,-0.001,0.005,0.018586538461538456,1.6848187869824486e-06,0.016,0.022,0.9934038461538461,1.6253698216228685e-06,0.991,0.997,0.9935810132003542,1.6259769887172482e-06,0.9911458015852158,0.9971624742237345,Mirovanje
0.0015673076923076927,1.2454696745562127e-06,-0.001,0.004,0.018249999999999995,2.3221153846157304e-06,0.015,0.023,0.9938461538461539,1.899408283989601e-06,0.99,0.997,0.994016732038099,1.8998898361211047e-06,0.9901636228422048,0.9972216403588523,Mirovanje
0.001798076923076923,2.08422707100592e-06,-0.001,0.006,0.018192307692307688,2.7130177514796475e-06,0.014,0.022,0.9939230769230769,1.6863905319963735e-06,0.992,0.997,0.9940935910080301,1.6919321439434754e-06,0.9921456546293996,0.9972216403588523,Mirovanje
0.001711538461538462,1.5706360946745547e-06,0.0,0.005,0.018701923076923074,1.4592270710060825e-06,0.016,0.021,0.9939038461538462,1.8176775148370794e-06,0.99,0.998,0.9940827762630371,1.8281679420306673e-06,0.990171702281983,0.9981828489810872,Mirovanje
0.0017788461538461539,1.749167899408285e-06,-0.001,0.006,0.018567307692307692,1.9762389053255315e-06,0.016,0.023,0.9936346153846153,1.5972633128358282e-06,0.99,0.997,0.9938115437048373,1.5963682389319445e-06,0.9902227022241007,0.9972231445368684,Mirovanje
0.001903846153846154,1.5484467455621308e-06,0.0,0.005,0.018374999999999996,1.926682692307926e-06,0.015,0.022,0.9936923076923077,1.8860946734422512e-06,0.99,0.997,0.9938657617289249,1.8765091372996423e-06,0.9901843262746588,0.9971644799129179,Mirovanje
0.001798076923076923,1.7380732248520726e-06,-0.001,0.005,0.018788461538461535,1.8206360946746336e-06,0.016,0.022,0.9939230769230769,1.8210059172796278e-06,0.991,0.997,0.9941040607124193,1.81839815560636e-06,0.9911654755892176,0.9971855394057818,Mirovanje
0.0015961538461538465,1.6253698224852073e-06,-0.001,0.004,0.01819230769230769,2.7707100591717e-06,0.013,0.023,0.9939615384615383,1.8831360950599674e-06,0.991,0.996,0.994131497562061,1.8924780904594485e-06,0.9911458015852158,0.996273556810578,Mirovanje
0.0018653846153846158,1.8664940828402378e-06,-0.001,0.005,0.01825961538461538,1.769138313609741e-06,0.015,0.022,0.9938365384615383,1.386741863784735e-06,0.991,0.996,0.994007846708599,1.381450965731723e-06,0.9911654755892176,0.9962429422585638,Mirovanje
0.0020384615384615385,1.6139053254437865e-06,-0.002,0.005,0.018788461538461535,2.0706360946747752e-06,0.015,0.023,0.9935576923076924,1.4774408270135098e-06,0.99,0.996,0.9937392646800804,1.4853715539775436e-06,0.990171702281983,0.9962258780015705,Mirovanje
0.0018173076923076923,2.2454696745562154e-06,-0.002,0.006,0.018730769230769224,2.0813609467458223e-06,0.015,0.022,0.9938461538461538,1.3994082830315335e-06,0.99,0.996,0.9940264810112693,1.4031252763002655e-06,0.9901843262746588,0.9962088134522802,Mirovanje
0.0015576923076923075,2.054363905325445e-06,-0.002,0.005,0.018105769230769227,1.8445821005919354e-06,0.015,0.022,0.9939615384615383,1.3446745562584184e-06,0.991,0.996,0.9941296084663145,1.350416766410234e-06,0.991163962218159,0.9962293912548456,Mirovanje
0.001653846153846154,1.534023668639054e-06,0.0,0.005,0.018499999999999996,2.2692307692309286e-06,0.015,0.022,0.994048076923077,1.795765532386362e-06,0.991,0.997,0.9942235109658925,1.77370419252032e-06,0.9911679978691806,0.9971629756464085,Mirovanje
0.0015865384615384617,1.5694341715976336e-06,0.0,0.005,0.018403846153846153,1.894600591716123e-06,0.016,0.022,0.9935480769230769,2.1899963010829637e-06,0.991,0.997,0.9937215178445107,2.1988189555788296e-06,0.9911336943117209,0.9971815281080972,Mirovanje
0.0015000000000000002,1.5192307692307698e-06,0.0,0.005,0.01899038461538461,2.067215236686512e-06,0.016,0.022,0.9938365384615385,1.7713572481037332e-06,0.991,0.997,0.9940208923920456,1.7731804290432862e-06,0.9911478194497529,0.9971815281080972,Mirovanje
0.0015000000000000002,1.8846153846153839e-06,-0.001,0.005,0.01842307692307692,2.051775147929064e-06,0.015,0.021,0.9937788461538463,1.5568602063087411e-06,0.991,0.998,0.9939527074402655,1.563449089081459e-06,0.991126127190682,0.9982003806851608,Mirovanje
0.0016250000000000001,1.9074519230769226e-06,0.0,0.006,0.018403846153846153,2.64460059171606e-06,0.014,0.022,0.9937980769230769,1.7765347635201323e-06,0.991,0.997,0.9939720877957481,1.7771445000036579e-06,0.9911463060517353,0.997221138965676,Mirovanje
0.0016923076923076922,1.9245562130177526e-06,-0.001,0.005,0.018019230769230767,2.0765532544381377e-06,0.015,0.021,0.9938173076923077,1.7262389049310656e-06,0.991,0.996,0.9939841007103541,1.7325350281094387e-06,0.9911296585210232,0.9962027906003877,Mirovanje
-0.7763076923076923,0.16254238609467386,-0.988,0.004,0.026105769230769238,1.5133043639052623e-05,0.017,0.033,0.1945384615384616,0.17157557544378652,-0.023,0.997,0.9875722861677864,1.4431516408675016e-05,0.9825548330754879,0.9971830323466199,Mirovanje
-0.9847884615384614,2.5321745559248043e-06,-0.989,-0.981,0.027259615384615393,2.4229844674553353e-06,0.024,0.03,-0.019317307692307693,1.4089312130176638e-06,-0.022,-0.017,0.9853569800917531,2.5448613829581745e-06,0.9815482667704121,0.9895180645142361,Mirovanje
-0.9853365384615385,2.050203402048645e-06,-0.988,-0.982,0.026971153846153853,2.085706360946491e-06,0.024,0.032,-0.019288461538461536,1.5321745562131778e-06,-0.022,-0.016,0.9858961459275272,2.03944524801436e-06,0.9825548330754879,0.9885990086986736,Mirovanje
-0.984971153846154,2.643398667956376e-06,-0.988,-0.981,0.027240384615384625,1.6633690828398665e-06,0.025,0.03,-0.01924038461538461,1.7595229289939923e-06,-0.022,-0.016,0.985537316658253,2.668627896440512e-06,0.9815553983347043,0.9885990086986736,Mirovanje
-0.9852692307692308,2.3890532542258924e-06,-0.989,-0.981,0.02667307692307693,2.1623520710053763e-06,0.024,0.031,-0.019374999999999996,1.5228365384615519e-06,-0.022,-0.017,0.9858225007010382,2.3721115515185076e-06,0.9816623655819754,0.9895645506989426,Mirovanje
-0.985423076923077,2.0325443779167784e-06,-0.989,-0.982,0.027259615384615393,2.269138313608669e-06,0.025,0.03,-0.019374999999999996,1.3689903846154277e-06,-0.022,-0.016,0.9859922794453299,2.0133357410134778e-06,0.98260266639166,0.9894983577550799,Mirovanje
-0.9854807692307693,2.326553253717556e-06,-0.991,-0.982,0.02734615384615385,2.0147928994082923e-06,0.024,0.031,-0.01924038461538461,1.3364460059172591e-06,-0.022,-0.017,0.9860495543657561,2.305181247663768e-06,0.9825639928269303,0.9915427373542706,Mirovanje
-0.9854615384615385,2.19082840213769e-06,-0.99,-0.982,0.027288461538461546,2.051405325443007e-06,0.024,0.03,-0.019326923076923075,1.5469674556210962e-06,-0.022,-0.016,0.9860305535369585,2.1705685224748805e-06,0.9825955424283177,0.9905503520770662,Mirovanje
-0.9848846153846154,1.5443786977042961e-06,-0.988,-0.982,0.027307692307692314,1.6168639053252805e-06,0.025,0.03,-0.019163461538461535,1.5790495562130078e-06,-0.022,-0.015,0.985451090702801,1.5420634286167356e-06,0.982527862200355,0.9885651217800474,Mirovanje
-0.9856634615384616,2.3194341708387967e-06,-0.989,-0.982,0.02729807692307693,2.305380917160091e-06,0.024,0.031,-0.019413461538461536,1.2425110946745976e-06,-0.022,-0.016,0.9862342797835436,2.3396106039186293e-06,0.9825639928269303,0.989669641850249,Mirovanje
-0.9857788461538463,1.9607063600490804e-06,-0.99,-0.982,0.026942307692307696,1.9966715976324186e-06,0.024,0.031,-0.019317307692307686,1.1973927514793785e-06,-0.021,-0.016,0.9863377686811355,1.940688503121457e-06,0.9826616915296942,0.9905316754147744,Mirovanje
-0.9856826923076922,2.0820081356731635e-06,-0.989,-0.982,0.02723076923076924,1.754437869822185e-06,0.023,0.03,-0.019307692307692303,1.520710059171751e-06,-0.023,-0.016,0.9862494395921835,2.0717502580147595e-06,0.9825548330754879,0.9894983577550799,Mirovanje
-0.985153846153846,1.8032544373269843e-06,-0.988,-0.982,0.02698076923076924,1.865014792899202e-06,0.024,0.03,-0.018980769230769228,2.0188609467457056e-06,-0.022,-0.014,0.9857079781598451,1.8010227994524897e-06,0.9824652665616225,0.9885990086986736,Mirovanje
-0.9850673076923078,2.1012389046504154e-06,-0.989,-0.982,0.026942307692307703,2.1505177514789765e-06,0.024,0.03,-0.01936538461538461,1.5395710059172996e-06,-0.022,-0.016,0.9856278019007956,2.134197129022297e-06,0.98254770876533,0.9896074979505763,Mirovanje
-0.985153846153846,2.937869822527972e-06,-0.99,-0.982,0.027144230769230778,1.8349667159760783e-06,0.023,0.03,-0.01919230769230769,1.424556213017842e-06,-0.022,-0.016,0.9857162528194372,2.9208506839850656e-06,0.9825548330754879,0.9906068846924091,Mirovanje
-0.9852980769230769,2.3053809168338546e-06,-0.989,-0.981,0.026961538461538467,2.2485207100591056e-06,0.023,0.03,-0.019423076923076918,1.667159763313645e-06,-0.022,-0.016,0.9858602263485399,2.316027082449601e-06,0.981603280353117,0.9896074979505763,Mirovanje
-0.9852115384615383,1.7244822478890143e-06,-0.99,-0.982,0.026932692307692314,2.5820081360944424e-06,0.024,0.03,-0.019413461538461532,1.7232803254439797e-06,-0.023,-0.016,0.985772955912843,1.737083163644293e-06,0.982527862200355,0.9905594378935572,Mirovanje
-0.985625,1.7343749997289493e-06,-0.989,-0.982,0.027451923076923082,1.9592270710054984e-06,0.024,0.031,-0.019509615384615382,1.2306767751479267e-06,-0.022,-0.017,0.9862018394948926,1.7298538126375718e-06,0.9826118256972078,0.9895888034936531,Mirovanje
-0.9854807692307693,2.345784022694808e-06,-0.989,-0.981,0.027173076923076928,1.373890532544342e-06,0.025,0.03,-0.019413461538461536,1.4540495562129913e-06,-0.022,-0.016,0.9860478976834879,2.3223201276456606e-06,0.9816323140565412,0.9895984033940233,Mirovanje
-0.9855673076923076,2.1493158283147906e-06,-0.989,-0.982,0.027375000000000007,2.4843750000002078e-06,0.024,0.032,-0.01956730769230769,1.3800850591716646e-06,-0.022,-0.016,0.9861435251696865,2.149688980823683e-06,0.98254770876533,0.9895913297922532,Mirovanje
-0.9855576923076923,2.2659023664051148e-06,-0.989,-0.982,0.027461538461538468,1.998520710059506e-06,0.024,0.031,-0.01979807692307692,1.8342270710056986e-06,-0.023,-0.017,0.9861409182175608,2.2528785644793103e-06,0.98260266639166,0.9895913297922532,Mirovanje
-0.9854038461538461,1.8561390525695387e-06,-0.99,-0.983,0.027211538461538468,2.051405325443549e-06,0.023,0.03,-0.019961538461538458,1.325443786982035e-06,-0.023,-0.017,0.9859832904198319,1.8548590358102857e-06,0.9835273254973651,0.9905977993111028,Mirovanje
-0.9854711538461539,2.4607063604520363e-06,-0.989,-0.982,0.027442307692307696,1.9005177514790517e-06,0.025,0.031,-0.01965384615384615,1.3224852071005706e-06,-0.022,-0.016,0.9860506984962913,2.452687283827082e-06,0.9825090330373558,0.9895509082407029,Mirovanje
-0.985,2.5961538462349054e-06,-0.988,-0.981,0.027076923076923085,2.494082840236427e-06,0.024,0.031,-0.019451923076923075,1.4399963017750188e-06,-0.022,-0.016,0.985566062732491,2.6032976682133224e-06,0.981483570927196,0.9884988619113326,Mirovanje
-0.9856153846153847,1.8328402360268115e-06,-0.988,-0.982,0.027038461538461546,2.5946745562129394e-06,0.023,0.03,-0.01969230769230769,1.6360946745562358e-06,-0.023,-0.017,0.9861849626788726,1.834770685715803e-06,0.9826118256972078,0.9886081124490128,Mirovanje
-0.9852115384615383,1.8014053250192674e-06,-0.988,-0.982,0.026673076923076928,2.3738905325446915e-06,0.023,0.031,-0.01977884615384615,1.4607063609467876e-06,-0.023,-0.016,0.9857729205263321,1.816464678228158e-06,0.9824530523134426,0.9886081124490128,Mirovanje
-0.9853557692307694,1.652274407182297e-06,-0.989,-0.982,0.027038461538461542,2.0946745562127646e-06,0.024,0.031,-0.019634615384615382,1.5780325443785054e-06,-0.023,-0.016,0.9859240734574158,1.6348386745468346e-06,0.9826316705663419,0.9895645506989426,Mirovanje
-0.9852596153846155,1.5960613894971942e-06,-0.989,-0.981,0.02675000000000001,1.8221153846150135e-06,0.024,0.03,-0.01965384615384615,1.399408284023687e-06,-0.022,-0.016,0.9858202428252819,1.6122974406673762e-06,0.9815095516600947,0.9895509082407029,Mirovanje
-0.9851634615384616,2.771357247799422e-06,-0.99,-0.981,0.027115384615384618,2.4097633136093517e-06,0.023,0.032,-0.01952884615384615,1.9799371301773756e-06,-0.022,-0.015,0.9857322376515948,2.782577456450497e-06,0.9815691519195171,0.9906265693993878,Mirovanje
-0.9854711538461538,5.403014053162458e-06,-0.994,-0.979,0.027019230769230775,2.576553254437391e-06,0.023,0.031,-0.019961538461538458,3.38313609467457e-06,-0.025,-0.016,0.9860465693533799,5.422681814803987e-06,0.9796136993733805,0.9945833298422009,Mirovanje
-0.9852115384615383,5.782174556490105e-06,-0.994,-0.974,0.026951923076923085,2.622688609467058e-06,0.023,0.031,-0.019769230769230765,2.3313609467452592e-06,-0.022,-0.015,0.985780903198627,5.751273514542632e-06,0.9746286472292921,0.9944531160391625,Mirovanje
-0.9855384615384615,6.190828401919646e-06,-0.997,-0.975,0.026990384615384624,2.0479844674556108e-06,0.024,0.031,-0.01971153846153846,1.5706360946743294e-06,-0.023,-0.016,0.9861068423900442,6.189622306029818e-06,0.9755055099793132,0.9975600232567462,Mirovanje
-0.9851346153846154,2.058801774396102e-06,-0.99,-0.982,0.027019230769230775,1.9034763313606788e-06,0.024,0.031,-0.01992307692307692,1.167159763313416e-06,-0.022,-0.017,0.9857079808955539,2.0840911182373745e-06,0.98254770876533,0.9905700379074667,Mirovanje
-0.9851826923076923,2.187777366491339e-06,-0.988,-0.982,0.026942307692307696,2.0928254437865444e-06,0.023,0.03,-0.019874999999999993,1.4170673076923821e-06,-0.023,-0.017,0.9857531872093576,2.192368131592737e-06,0.9825090330373558,0.9886485725473941,Mirovanje
-0.9850769230769232,1.7633136087935597e-06,-0.988,-0.981,0.02702884615384616,1.8357063609465664e-06,0.024,0.03,-0.01998076923076923,1.6342455621299072e-06,-0.023,-0.017,0.985651964475973,1.7722323473190471e-06,0.981603280353117,0.988670319166101,Mirovanje
-0.9851538461538463,1.9955621292089276e-06,-0.988,-0.982,0.027086538461538467,1.6175110946743763e-06,0.025,0.03,-0.01935576923076923,1.7291974852069627e-06,-0.023,-0.017,0.9857178962743803,1.998195179098161e-06,0.9825181932157796,0.9886379519318484,Mirovanje
-0.9848942307692308,1.8638128691517153e-06,-0.988,-0.981,0.026903846153846164,2.0676775147929856e-06,0.024,0.031,-0.01964423076923077,2.556120562129745e-06,-0.024,-0.016,0.985459784756388,1.8587817401938267e-06,0.9815961491367007,0.9884882396872509,Mirovanje
-0.9851057692307692,2.709966715475076e-06,-0.989,-0.981,0.027048076923076928,2.2957655325441797e-06,0.024,0.03,-0.019769230769230765,1.158284023668589e-06,-0.022,-0.017,0.9856770277603465,2.7584839906724667e-06,0.981483570927196,0.9895888034936531,Mirovanje
-0.9854038461538461,1.8176775138378787e-06,-0.989,-0.982,0.02702884615384616,1.9126294378698453e-06,0.024,0.03,-0.01964423076923076,1.6522744082843885e-06,-0.023,-0.015,0.9859719778925904,1.8357336494245757e-06,0.9825548330754879,0.989669641850249,Mirovanje
-0.9851730769230769,2.143121301312334e-06,-0.989,-0.981,0.026576923076923085,1.4171597633134492e-06,0.024,0.029,-0.019673076923076918,1.3738905325443962e-06,-0.022,-0.017,0.98572924294,2.148074472851924e-06,0.9815834146928115,0.9895984033940233,Mirovanje
-0.985153846153846,1.630177514089226e-06,-0.988,-0.982,0.02722115384615385,2.287629437869353e-06,0.024,0.031,-0.019846153846153843,1.5917159763311796e-06,-0.024,-0.017,0.9857316336114958,1.6176514575638734e-06,0.9825645016995067,0.9885990086986736,Mirovanje
-0.985423076923077,1.8594674546790202e-06,-0.989,-0.982,0.02682692307692308,1.6238905325442667e-06,0.024,0.029,-0.019817307692307686,9.377773668640304e-07,-0.022,-0.016,0.9859886527660872,1.8477703622732378e-06,0.9825548330754879,0.9895786982347589,Mirovanje
-0.9848653846153845,2.6164940828410366e-06,-0.988,-0.981,0.026846153846153853,2.3224852070999986e-06,0.024,0.033,-0.019634615384615382,1.6357248520708291e-06,-0.023,-0.017,0.9854288457504198,2.6245783801837064e-06,0.9816241643317467,0.9885990086986736,Mirovanje
-0.9854134615384615,2.5117418636089184e-06,-0.988,-0.981,0.02708653846153847,2.1175110946741174e-06,0.022,0.032,-0.019701923076923072,2.0553809171597326e-06,-0.023,-0.017,0.9859846233399625,2.543690998058068e-06,0.9814917218193947,0.9886096297325856,Mirovanje
-0.9852596153846155,2.4229844669543255e-06,-0.989,-0.982,0.026875000000000007,2.3593749999997575e-06,0.023,0.03,-0.01977884615384615,1.6722448224852355e-06,-0.023,-0.017,0.9858265542841932,2.437560462031918e-06,0.9824530523134426,0.9895180645142361,Mirovanje
-0.9852500000000001,1.8605769223078994e-06,-0.988,-0.981,0.026990384615384624,1.8364460059167292e-06,0.023,0.03,-0.019807692307692304,1.713017751479298e-06,-0.023,-0.016,0.9858204357789812,1.8664774625865022e-06,0.9815691519195171,0.9885514655292358,Mirovanje
-0.9851346153846153,1.98187869782096e-06,-0.989,-0.982,0.02677884615384616,2.3068602071008503e-06,0.023,0.032,-0.019788461538461536,1.1283284023668036e-06,-0.022,-0.017,0.9856988998054725,1.9962299726561383e-06,0.982527862200355,0.9895322127146746,Mirovanje
-0.9854711538461539,2.191475591106773e-06,-0.99,-0.982,0.02661538461538462,2.082840236686365e-06,0.024,0.031,-0.019730769230769225,1.5428994082839539e-06,-0.022,-0.017,0.9860297725893354,2.181798192668616e-06,0.9825955424283177,0.9905175414903059,Mirovanje
-0.9851153846153846,2.0443786972190736e-06,-0.99,-0.982,0.026769230769230774,1.7928994082838786e-06,0.024,0.03,-0.019874999999999997,1.51322115384602e-06,-0.023,-0.017,0.9856810890061465,2.069621811040534e-06,0.9825217554843251,0.9905907328458106,Mirovanje
-0.9853269230769232,2.258505916397091e-06,-0.988,-0.982,0.026673076923076928,1.5469674556210962e-06,0.024,0.029,-0.019903846153846147,1.6638313609466113e-06,-0.023,-0.017,0.9858904578216156,2.235945516182447e-06,0.9824830787346924,0.9885919279460055,Mirovanje
-0.9854807692307693,2.211168638632799e-06,-0.989,-0.982,0.026586538461538467,1.954049556212624e-06,0.022,0.029,-0.019701923076923072,1.2092270710059951e-06,-0.023,-0.017,0.9860377884339637,2.2105494885682475e-06,0.9825090330373558,0.9895984033940233,Mirovanje
-0.9850096153846154,2.0672152355460938e-06,-0.99,-0.983,0.026807692307692314,2.4245562130175953e-06,0.023,0.031,-0.019557692307692307,1.400517751479148e-06,-0.022,-0.017,0.9855703688631384,2.038403592474758e-06,0.9834825875428603,0.9905235989112021,Mirovanje
-0.14550961538461543,0.14762405759985273,-0.988,0.034,0.018673076923076924,1.6277736686390364e-05,0.013,0.031,-0.841951923076923,0.14142629576553223,-1.016,-0.017,1.0096295874026155,0.00011950008737793283,0.9815222870622958,1.01663218520761,Mirovanje
0.0300673076923077,1.985854289939925e-06,0.027,0.034,0.016673076923076926,1.5854289940827899e-06,0.014,0.02,-1.0135384615384615,1.7100591709340307e-06,-1.016,-1.011,1.0141231864150397,1.691621560384604e-06,1.0115142114671447,1.0166021837474086,Mirovanje
0.02973076923076924,1.7736686390525981e-06,0.025,0.033,0.01685576923076923,2.950351331361021e-06,0.013,0.021,-1.0130096153846153,1.7402921597131638e-06,-1.016,-1.01,1.013588299204179,1.7404856107461342e-06,1.0105211526732134,1.016482169051676,Mirovanje
0.03004807692307693,1.6226886094666002e-06,0.027,0.033,0.016548076923076922,2.4015347633136747e-06,0.013,0.02,-1.0132499999999998,1.1298076927346301e-06,-1.015,-1.011,1.0138324871567503,1.1302932496626283e-06,1.0115423866551514,1.0156401921940663,Mirovanje
0.029817307692307702,1.6108542899402004e-06,0.027,0.033,0.01643269230769231,1.8223927514791904e-06,0.013,0.02,-1.013548076923077,1.651534762725504e-06,-1.017,-1.011,1.01412140669531,1.666713094650163e-06,1.0114988877897988,1.0176015919798866,Mirovanje
0.02950000000000001,2.057692307691505e-06,0.026,0.032,0.01636538461538462,1.6741863905324144e-06,0.012,0.019,-1.013346153846154,1.3032544372570953e-06,-1.016,-1.011,1.013909380785403,1.3060168986278597e-06,1.0115142114671447,1.016598740900263,Mirovanje
0.029365384615384627,1.8280325443774002e-06,0.026,0.033,0.016711538461538465,1.9552514792898026e-06,0.014,0.02,-1.0132403846153846,1.5287536987429462e-06,-1.016,-1.011,1.0138054312121487,1.5380293640898657e-06,1.0115142114671447,1.016555458398606,Mirovanje
0.029567307692307702,2.0339312130166626e-06,0.026,0.033,0.01676923076923077,3.0044378698227303e-06,0.013,0.02,-1.0132403846153846,1.9325998525943078e-06,-1.016,-1.011,1.0138128816815202,1.9217058424558786e-06,1.0115270634046327,1.0166631693928918,Mirovanje
0.03000000000000001,2.096153846152765e-06,0.025,0.033,0.01649038461538462,2.5191383136093527e-06,0.012,0.021,-1.0131442307692307,1.873428254306475e-06,-1.016,-1.01,1.0137247156874407,1.854650571120331e-06,1.0105869581584752,1.016620381460061,Mirovanje
0.02948076923076924,1.557322485206303e-06,0.026,0.033,0.017240384615384616,1.8556767751480097e-06,0.014,0.02,-1.013173076923077,1.681582840307172e-06,-1.016,-1.009,1.0137501938086986,1.6695528264332182e-06,1.0096662815009718,1.01663218520761,Mirovanje
0.030076923076923088,2.2440828402359603e-06,0.026,0.034,0.016865384615384615,2.058801775147996e-06,0.014,0.02,-1.0132499999999998,1.8605769231960778e-06,-1.017,-1.01,1.0138387156241657,1.8471630804928196e-06,1.0105869581584752,1.0175529470253624,Mirovanje
0.029288461538461548,2.109097633134897e-06,0.026,0.034,0.016548076923076922,2.4976886094674753e-06,0.013,0.021,-1.0133076923076922,1.424556212770156e-06,-1.016,-1.01,1.0138681998880548,1.4367172938012374e-06,1.0106240646254174,1.0165397188501786,Mirovanje
0.03003846153846155,1.921597633134926e-06,0.026,0.033,0.01715384615384615,1.6301775147930901e-06,0.014,0.02,-1.0135,2.0961538453878603e-06,-1.017,-1.01,1.014091905218981,2.0693077982247843e-06,1.0105721151902025,1.0175907821909551,Mirovanje
0.029807692307692316,1.4630177514778553e-06,0.027,0.033,0.01689423076923077,2.459966715976324e-06,0.014,0.021,-1.0133076923076922,2.0976331365218925e-06,-1.016,-1.009,1.0138887138301227,2.0894294381346157e-06,1.0095875395427578,1.0166459560732044,Mirovanje
0.029519230769230777,2.576553254437174e-06,0.026,0.033,0.016961538461538465,1.8062130177515798e-06,0.013,0.02,-1.013653846153846,1.495562130360284e-06,-1.016,-1.011,1.0142275751404046,1.50274789167959e-06,1.0114988877897988,1.0165913633314028,Mirovanje
0.029673076923076934,1.97004437869745e-06,0.027,0.033,0.016730769230769233,1.9275147928993186e-06,0.013,0.02,-1.0137115384615385,1.5706360940725972e-06,-1.017,-1.011,1.014285648674469,1.5844314733559628e-06,1.0115423866551514,1.0175391884345288,Mirovanje
0.02998076923076924,2.134245562128781e-06,0.026,0.034,0.016673076923076926,2.0854289940826936e-06,0.014,0.02,-1.0134615384615384,2.5177514795249323e-06,-1.017,-1.01,1.0140440610173032,2.5077001513107433e-06,1.0105884424433125,1.0175386970528442,Mirovanje
0.02962500000000001,1.9459134615376888e-06,0.026,0.033,0.016461538461538465,2.5177514792898772e-06,0.013,0.02,-1.0134134615384616,1.607895710131757e-06,-1.017,-1.011,1.013982198229555,1.6401350986239294e-06,1.0115478238817974,1.0175686709013794,Mirovanje
0.029913461538461545,2.040588017750513e-06,0.026,0.033,0.016673076923076922,1.7585059171598694e-06,0.013,0.02,-1.013625,1.7151442304186304e-06,-1.017,-1.011,1.014205228522062,1.7159769738483988e-06,1.0115423866551514,1.0175726018324196,Mirovanje
0.029778846153846166,1.7299371301758787e-06,0.027,0.033,0.01584615384615385,1.7263313609465112e-06,0.012,0.019,-1.0134903846153844,2.0191383134360308e-06,-1.016,-1.01,1.0140533094054518,2.0010684662619127e-06,1.0105567772272868,1.01655349096838,Mirovanje
0.029567307692307702,2.3031619822475426e-06,0.026,0.033,0.01689423076923077,3.036889792899615e-06,0.013,0.023,-1.0134999999999998,2.134615384008498e-06,-1.017,-1.01,1.0140745882204754,2.094910088290547e-06,1.010685410995924,1.0175554038970065,Mirovanje
0.029865384615384623,2.0972633136080634e-06,0.027,0.033,0.016394230769230772,1.7195821005915935e-06,0.014,0.02,-1.013076923076923,1.5710059173557056e-06,-1.017,-1.01,1.0136515212637927,1.5453626756034566e-06,1.0106359384071002,1.0175391884345288,Mirovanje
0.029855769230769245,1.7580436390522572e-06,0.027,0.033,0.016471153846153847,1.6914755917160824e-06,0.013,0.019,-1.0136153846153846,1.6213017748345493e-06,-1.016,-1.011,1.0141904434703437,1.6289888118414808e-06,1.0115270634046327,1.0166149713632984,Mirovanje
0.029692307692307702,2.00147928993929e-06,0.027,0.035,0.016673076923076926,2.373890532544529e-06,0.014,0.02,-1.013451923076923,1.7092270714336166e-06,-1.016,-1.01,1.0140260166545527,1.7471630857635034e-06,1.010559251108019,1.01666169397691,Mirovanje
0.029894230769230777,1.6138128698216106e-06,0.025,0.033,0.017153846153846155,2.3994082840237655e-06,0.014,0.021,-1.0137596153846151,1.2402921596432748e-06,-1.016,-1.01,1.0143473213563428,1.2424264432819854e-06,1.0106057589386674,1.016650382383246,Mirovanje
0.029701923076923084,2.2861501479280516e-06,0.026,0.033,0.016865384615384615,2.1164940828403197e-06,0.014,0.02,-1.0141442307692308,1.565735946007507e-06,-1.017,-1.011,1.0147214213848512,1.5715980914432492e-06,1.0115270634046327,1.017629107288112,Mirovanje
0.03004807692307693,1.8919193786972634e-06,0.027,0.034,0.01693269230769231,1.9858542899409007e-06,0.014,0.02,-1.0134615384615384,1.9023668633710855e-06,-1.017,-1.01,1.0140501857438293,1.8938698280734911e-06,1.0105884424433125,1.0175391884345288,Mirovanje
0.029432692307692316,1.82239275147854e-06,0.026,0.034,0.016182692307692315,2.7262389053251974e-06,0.012,0.02,-1.013798076923077,2.1419193785288115e-06,-1.017,-1.01,1.0143565842852467,2.114147936493893e-06,1.0106057589386674,1.017468918444195,Mirovanje
0.029682692307692313,1.3897004437869254e-06,0.027,0.032,0.01649038461538462,2.1922152366862574e-06,0.012,0.019,-1.013826923076923,2.5277366861864436e-06,-1.018,-1.011,1.0143971653986799,2.525446507917195e-06,1.0115305235137495,1.0185386590601262,Mirovanje
0.02955769230769232,1.7082100591706917e-06,0.027,0.033,0.016971153846153848,2.316475591716057e-06,0.013,0.022,-1.0137211538461537,2.528014053648775e-06,-1.017,-1.01,1.0142959754200018,2.481939094911567e-06,1.0106003166435285,1.017598152514046,Mirovanje
0.029826923076923088,1.7008136094660278e-06,0.025,0.033,0.016278846153846158,2.354937130177371e-06,0.013,0.02,-1.0138461538461538,2.3032544378409625e-06,-1.017,-1.011,1.0144174380406557,2.290245186609141e-06,1.0115206374563002,1.017638934003608,Mirovanje
0.02963461538461539,1.4241863905316765e-06,0.026,0.033,0.01693269230769231,2.5243158284023897e-06,0.013,0.021,-1.0139999999999998,1.250000000396767e-06,-1.016,-1.012,1.0145762045925444,1.2500745869559182e-06,1.0125413571800412,1.01666169397691,Mirovanje
0.02987500000000001,1.936298076921669e-06,0.026,0.033,0.01686538461538462,1.3472633136093733e-06,0.015,0.02,-1.013903846153846,2.144600592002277e-06,-1.017,-1.011,1.0144856993705178,2.160003480300432e-06,1.0115562268109468,1.0176453213177956,Mirovanje
0.029625000000000012,1.3689903846140182e-06,0.026,0.033,0.016778846153846155,2.422244822485281e-06,0.013,0.021,-1.0140192307692306,2.1534763314789984e-06,-1.017,-1.01,1.0145925060805219,2.161989861804159e-06,1.0105429233832672,1.0175843945344287,Mirovanje
0.029807692307692316,2.0014792899399406e-06,0.027,0.034,0.01682692307692308,2.354659763313628e-06,0.013,0.02,-1.0135961538461538,3.298446745514383e-06,-1.019,-1.007,1.014176080335713,3.33961335075017e-06,1.0075162529706405,1.0195101765063455,Mirovanje
0.029894230769230777,1.6715051775140427e-06,0.026,0.033,0.016711538461538465,2.455251479289869e-06,0.013,0.02,-1.013855769230769,1.4311205613903866e-06,-1.017,-1.012,1.0144360880585142,1.4424753080888308e-06,1.0125265428619636,1.0176806964858869,Mirovanje
0.02967307692307693,1.8354289940814136e-06,0.026,0.032,0.016903846153846155,2.048446745562193e-06,0.013,0.02,-1.0136442307692308,2.594582100057252e-06,-1.018,-1.009,1.0142212441972878,2.6043573677636545e-06,1.0096192351574924,1.0185548586109636,Mirovanje
0.030163461538461552,1.8290495562116316e-06,0.027,0.033,0.016567307692307694,2.187777366864088e-06,0.013,0.02,-1.0139326923076921,2.4473927513479765e-06,-1.017,-1.011,1.0145185068606664,2.4780833580706485e-06,1.0115033366232657,1.017699857521853,Mirovanje
0.030384615384615395,9.948224852069764e-06,0.027,0.059,0.016519230769230772,2.0380917159762814e-06,0.013,0.019,-1.013923076923077,1.686390532551485e-06,-1.016,-1.011,1.0145186310430403,1.7357280936991515e-06,1.0115715496196993,1.0168392203293497,Mirovanje
0.02967307692307693,1.931582840235648e-06,0.026,0.034,0.01653846153846154,1.883136094674642e-06,0.013,0.02,-1.0137692307692308,1.3505917153544544e-06,-1.017,-1.011,1.0143401189348682,1.3538884278130325e-06,1.0115142114671447,1.0175843945344287,Mirovanje
0.02967307692307693,1.5277366863895988e-06,0.027,0.032,0.016519230769230772,1.595784023668593e-06,0.014,0.02,-1.0135961538461538,2.3946005915931323e-06,-1.017,-1.01,1.0141664852922065,2.397802360221135e-06,1.0106497909760828,1.0176315639758822,Mirovanje
0.029884615384615395,1.8328402366848138e-06,0.026,0.032,0.01647115384615385,2.383783284023533e-06,0.013,0.02,-1.0138653846153844,1.7126479288087637e-06,-1.017,-1.011,1.0144415251036385,1.728683865165337e-06,1.0115423866551514,1.0176197718204967,Mirovanje
0.02991346153846155,1.8482803254428037e-06,0.027,0.034,0.01670192307692308,1.9784578402367247e-06,0.013,0.021,-1.0139326923076923,3.293546597893382e-06,-1.018,-1.009,1.0145132370816203,3.28601694121744e-06,1.0095315745433622,1.018510677410895,Mirovanje
0.02987500000000001,2.4747596153835375e-06,0.026,0.034,0.01616346153846154,2.1752034023668205e-06,0.012,0.019,-1.0139326923076923,1.8320081360823082e-06,-1.017,-1.011,1.014503774672896,1.8507898305042403e-06,1.0114573644004972,1.0176143670369437,Mirovanje
0.029884615384615395,1.7943786982237706e-06,0.026,0.033,0.016701923076923076,2.266919378698343e-06,0.013,0.019,-1.013826923076923,1.7200443784837205e-06,-1.018,-1.011,1.014406789895309,1.7203835245283017e-06,1.0115586982474125,1.0186309439635142,Mirovanje
0.030076923076923088,2.3017751479278504e-06,0.027,0.034,0.01675,2.072115384615426e-06,0.014,0.02,-1.0142115384615384,1.320636094481742e-06,-1.017,-1.011,1.0147978241818432,1.2991127198436203e-06,1.0115878607417153,1.0176787312310305,Mirovanje
0.029894230769230777,2.0176590236678765e-06,0.026,0.032,0.016634615384615387,2.5588017751478997e-06,0.012,0.02,-1.0140192307692308,1.2688609460909106e-06,-1.017,-1.012,1.014598404162813,1.2994241189723255e-06,1.0125137036109684,1.0176197718204967,Mirovanje
0.030028846153846163,1.1181860207099535e-05,0.025,0.061,0.016384615384615386,2.198224852071012e-06,0.013,0.022,-1.0138365384615384,1.3482803251640973e-06,-1.017,-1.011,1.0144200775188716,1.3486342993473954e-06,1.0115878607417153,1.0176015919798866,Mirovanje
0.02971153846153847,2.6475591715965485e-06,0.026,0.035,0.0165,1.557692307692306e-06,0.014,0.02,-1.0142115384615384,1.8206360941075417e-06,-1.018,-1.011,1.014782884311172,1.7938629446323517e-06,1.0115715496196993,1.0185975652827766,Mirovanje
0.029884615384615395,2.0251479289931738e-06,0.026,0.033,0.016278846153846158,1.8549371301774674e-06,0.013,0.019,-1.014076923076923,1.4363905331826743e-06,-1.017,-1.011,1.0146496774557403,1.445500500851793e-06,1.0115715496196993,1.0175554038970065,Mirovanje
0.029807692307692316,1.8860946745548595e-06,0.027,0.035,0.01675,1.7451923076923308e-06,0.013,0.02,-1.013701923076923,1.632303993748252e-06,-1.016,-1.011,1.0142801763006186,1.6374251243789217e-06,1.0115305235137495,1.016598740900263,Mirovanje
0.14250000000000002,0.09787861538461537,0.026,1.009,0.016259615384615386,3.76913831360941e-06,0.009,0.02,-0.8960480769230769,0.1067049880732247,-1.017,0.011,1.0139304102734708,5.276968824574624e-06,1.0071097258988218,1.0176015919798866,Mirovanje
1.0087980769230769,2.930380916588149e-06,1.002,1.015,0.011701923076923079,2.536150147928952e-06,0.008,0.015,0.009,1.980769230769229e-06,0.006,0.013,1.0089083191695156,2.945818234900699e-06,1.0021382140204014,1.0151561456248983,Mirovanje
1.0086826923076921,2.6589312127622833e-06,1.003,1.013,0.011192307692307694,2.40532544378683e-06,0.006,0.014,0.008990384615384615,1.4133690828402264e-06,0.006,0.011,1.0087867360527858,2.667317813065395e-06,1.0030807544759295,1.013099698943791,Mirovanje
1.0091442307692307,2.3541974851770675e-06,1.005,1.014,0.01098076923076923,1.6727071005916144e-06,0.007,0.014,0.008711538461538462,1.5706360946745733e-06,0.005,0.012,1.0092431769122159,2.3540869067417702e-06,1.0050960153139596,1.0141025589160102,Mirovanje
1.0084903846153845,2.249907543605545e-06,1.005,1.012,0.010990384615384614,2.2787536982247836e-06,0.008,0.015,0.009144230769230767,1.950351331360983e-06,0.006,0.013,1.0085938147089133,2.2573155373795117e-06,1.0050676594140315,1.0121432704908926,Mirovanje
1.0092115384615385,2.3398668631546826e-06,1.006,1.012,0.010807692307692306,1.943786982248457e-06,0.007,0.014,0.008971153846153846,1.335706360946771e-06,0.006,0.012,1.0093109041736605,2.3352546094645987e-06,1.0060899562166397,1.012132896412324,Mirovanje
1.0089711538461537,2.3741678989441795e-06,1.005,1.012,0.010673076923076922,2.8546597633135316e-06,0.006,0.015,0.009201923076923076,9.880732248520967e-07,0.007,0.012,1.0090714662534295,2.372146999940483e-06,1.0051004924881888,1.0120894229266502,Mirovanje
1.0088461538461537,2.1301775143811597e-06,1.005,1.012,0.011000000000000001,2.307692307692121e-06,0.006,0.014,0.008634615384615383,1.9049556213018447e-06,0.005,0.012,1.0089451560862495,2.1335485544948796e-06,1.0051034772599285,1.012132896412324,Mirovanje
1.0088461538461537,2.553254437209773e-06,1.005,1.012,0.010961538461538464,2.536982248520548e-06,0.006,0.014,0.008875,1.551682692307673e-06,0.006,0.012,1.0089467712910354,2.537701395022296e-06,1.0050845735558773,1.0120997974508246,Mirovanje
1.0083365384615384,1.8771264786998643e-06,1.005,1.011,0.010567307692307692,2.476238905325354e-06,0.007,0.015,0.008644230769230769,1.6330436390532977e-06,0.005,0.012,1.0084309988157325,1.872550580817034e-06,1.0051338219361639,1.0110914894310998,Mirovanje
1.0086538461538461,2.1494082833584116e-06,1.005,1.012,0.010644230769230767,1.5945821005916176e-06,0.008,0.013,0.008557692307692306,1.95821005917166e-06,0.005,0.013,1.0087480700052525,2.1485683701083502e-06,1.0050781064176055,1.012132896412324,Mirovanje
1.0090961538461538,2.1446005913361432e-06,1.006,1.013,0.010846153846153846,1.9763313609466528e-06,0.008,0.015,0.009076923076923076,1.6479289940827982e-06,0.006,0.012,1.0091970580696927,2.144137323467632e-06,1.0060899562166397,1.013089334659091,Mirovanje
1.0091730769230767,1.6623520708858308e-06,1.006,1.012,0.011201923076923078,1.6034578402365936e-06,0.008,0.014,0.009192307692307692,1.309171597633127e-06,0.006,0.012,1.0092785491403427,1.6660143951074957e-06,1.006081507632458,1.0121309203853026,Mirovanje
1.0087980769230769,1.5842270706389883e-06,1.006,1.014,0.010442307692307692,2.0928254437868968e-06,0.008,0.013,0.00919230769230769,1.5784023668639392e-06,0.007,0.012,1.0088958177095295,1.5847774506028145e-06,1.0061118228109636,1.0140892465656068,Mirovanje
1.0087980769230769,2.7380732239290495e-06,1.005,1.012,0.010759615384615385,2.1825998520709017e-06,0.007,0.014,0.008721153846153847,1.1241678994083096e-06,0.006,0.011,1.008894791229475,2.7329223413197212e-06,1.0051119340650572,1.0121284503461012,Mirovanje
1.0088365384615383,2.386741863480424e-06,1.005,1.014,0.011115384615384617,2.14053254437858e-06,0.007,0.015,0.008865384615384615,2.2511094674555835e-06,0.005,0.013,1.0089388989928498,2.3846375574176903e-06,1.0050721367145743,1.0140808646256965,Mirovanje
1.008826923076923,1.9123520706987307e-06,1.005,1.013,0.010673076923076922,1.8738905325442728e-06,0.007,0.014,0.008990384615384615,9.133690828402684e-07,0.007,0.011,1.008924814911583,1.9197787048952364e-06,1.0050721367145743,1.013099698943791,Mirovanje
1.0090096153846153,2.1633690825417773e-06,1.006,1.013,0.010894230769230769,2.0945821005916026e-06,0.006,0.014,0.008740384615384615,1.403753698224925e-06,0.006,0.012,1.0091080070420502,2.174354390538369e-06,1.0060675921626736,1.0131233883392485,Mirovanje
1.0085480769230768,2.3630732244317443e-06,1.004,1.011,0.010788461538461537,2.532174556212958e-06,0.007,0.015,0.008807692307692306,1.2707100591716365e-06,0.006,0.012,1.0086461122758772,2.3759599883099725e-06,1.0040562733233631,1.0111285773827183,Mirovanje
1.009076923076923,1.9748520705409334e-06,1.004,1.013,0.010490384615384613,1.7114460059171598e-06,0.007,0.013,0.008711538461538462,1.7052514792899591e-06,0.005,0.011,1.0091707433431478,1.978087930343264e-06,1.0040816699850665,1.013089334659091,Mirovanje
1.008903846153846,2.721523668425263e-06,1.005,1.012,0.011057692307692307,2.0351331360946e-06,0.008,0.014,0.008855769230769231,1.7195821005917833e-06,0.005,0.011,1.0090051636981274,2.7238612838598186e-06,1.0050721367145743,1.012121040192328,Mirovanje
1.0091442307692307,2.2580436387364955e-06,1.006,1.012,0.011019230769230769,1.9419378698223725e-06,0.008,0.014,0.008807692307692306,1.2322485207101055e-06,0.006,0.011,1.0092444008429229,2.2489825943772246e-06,1.0061098349583906,1.0121111599029031,Mirovanje
1.0090096153846153,2.4710613901746115e-06,1.005,1.012,0.010096153846153847,2.3176775147928154e-06,0.006,0.014,0.008740384615384615,1.5768306213018147e-06,0.006,0.012,1.0090999052961027,2.477285242497018e-06,1.0051034772599285,1.0120997974508246,Mirovanje
1.0086442307692307,2.30612056140167e-06,1.005,1.012,0.010538461538461536,2.3639053254437124e-06,0.007,0.014,0.008615384615384615,1.4289940828402555e-06,0.006,0.011,1.00873795339788,2.3086823486284658e-06,1.0050781064176055,1.012091399034692,Mirovanje
1.0085480769230768,2.016919378400317e-06,1.005,1.013,0.010230769230769229,1.6967455621300917e-06,0.007,0.014,0.008903846153846153,2.413831360946738e-06,0.005,0.012,1.0086413024506344,2.021067610824545e-06,1.0050994975623058,1.0130809444461977,Mirovanje
1.008903846153846,2.6253698224287803e-06,1.004,1.013,0.010432692307692308,2.1493158284022315e-06,0.006,0.014,0.008692307692307692,2.1168639053254824e-06,0.005,0.013,1.008997345855905,2.6156711234737173e-06,1.004092127247296,1.0130913088167324,Mirovanje
1.0087307692307692,2.1005917156813325e-06,1.005,1.012,0.010826923076923076,2.027736686390397e-06,0.005,0.014,0.008759615384615383,1.9710613905326164e-06,0.005,0.012,1.0088288868229265,2.0944193068750394e-06,1.0051019848751666,1.0121205461801475,Mirovanje
1.008826923076923,2.5661982248070814e-06,1.005,1.012,0.010644230769230767,2.8061205621301982e-06,0.007,0.014,0.008519230769230769,1.3457840236687089e-06,0.006,0.011,1.0089211063198498,2.5569915602652316e-06,1.0050960153139596,1.0120997974508246,Mirovanje
1.0089423076923076,2.7274408280764106e-06,1.006,1.013,0.010605769230769231,1.7772744082838766e-06,0.008,0.013,0.008798076923076922,1.8534578402367488e-06,0.006,0.013,1.0090382047016215,2.7283756052209895e-06,1.0060805136767137,1.013089334659091,Mirovanje
1.0090288461538461,2.220321744683673e-06,1.005,1.012,0.010346153846153845,1.8994082840236313e-06,0.007,0.013,0.008865384615384615,1.4626479289940478e-06,0.006,0.013,1.0091224946518638,2.223479906415804e-06,1.0050845735558773,1.012109183833444,Mirovanje
1.0085,1.846153845797005e-06,1.005,1.012,0.011028846153846151,2.2203217455620667e-06,0.007,0.015,0.008644230769230769,1.6330436390532842e-06,0.006,0.011,1.0085992571562268,1.8461562150129396e-06,1.0051034772599285,1.0121309203853026,Mirovanje
1.0088461538461537,1.9955621295419945e-06,1.006,1.012,0.010528846153846154,2.191475591715837e-06,0.007,0.015,0.009048076923076923,1.1996116863905582e-06,0.006,0.012,1.0089433437145274,2.0022510718309405e-06,1.0060675921626736,1.0120894229266502,Mirovanje
1.0086634615384615,2.3194341707277744e-06,1.004,1.012,0.011048076923076923,2.2380732248519373e-06,0.007,0.015,0.008836538461538462,1.3290495562130018e-06,0.006,0.012,1.0087644374104656,2.319431330999322e-06,1.0041035803143021,1.012102761581056,Mirovanje
1.008875,1.8593749990802877e-06,1.006,1.013,0.010634615384615383,2.0780325443786124e-06,0.007,0.014,0.008740384615384615,1.8845229289940767e-06,0.006,0.012,1.0089708666627284,1.8671489394606056e-06,1.0060899562166397,1.013132765238594,Mirovanje
1.0087403846153846,1.884522928374821e-06,1.006,1.012,0.010701923076923078,2.5553809171596634e-06,0.007,0.015,0.008836538461538462,1.7521264792899383e-06,0.005,0.012,1.008837984145735,1.8928986158517347e-06,1.0060805136767137,1.0121462344938106,Mirovanje
1.0087596153846154,2.3172152356920606e-06,1.004,1.014,0.010692307692307692,2.097633136094527e-06,0.008,0.015,0.009019230769230769,1.4419378698224687e-06,0.006,0.011,1.0088583501662016,2.3196845448936187e-06,1.0041035803143021,1.01414298794598,Mirovanje
1.0084423076923075,2.2082100590292697e-06,1.004,1.012,0.010932692307692308,2.197392751479186e-06,0.008,0.014,0.008971153846153846,1.8164755917159364e-06,0.006,0.012,1.0085434549339825,2.2148944409661198e-06,1.0040722085587273,1.0120810244244283,Mirovanje
1.0091249999999998,3.013221153480572e-06,1.006,1.014,0.010336538461538461,2.2617418639052925e-06,0.006,0.014,0.008990384615384614,1.3172152366864123e-06,0.006,0.012,1.0092197574119153,3.0100955887846226e-06,1.0060720650132375,1.0140714964932207,Mirovanje
1.0085384615384616,2.4408284013954784e-06,1.005,1.013,0.01068269230769231,1.8512389053252439e-06,0.007,0.014,0.008932692307692306,1.5050850591715999e-06,0.006,0.012,1.0086362543862124,2.444799290124422e-06,1.0050721367145743,1.013099698943791,Mirovanje
1.0087499999999998,1.8605769229740332e-06,1.006,1.012,0.010615384615384617,1.7751479289939402e-06,0.007,0.014,0.008586538461538461,1.5694341715976793e-06,0.005,0.012,1.008844053959197,1.8574834796947215e-06,1.0060899562166397,1.0120484178140885,Mirovanje
1.008576923076923,2.1479289937786916e-06,1.005,1.012,0.010884615384615385,2.5443786982247375e-06,0.007,0.014,0.008519230769230769,1.5957840236686878e-06,0.006,0.012,1.0086736824886557,2.152254774179241e-06,1.005137801497884,1.0121309203853026,Mirovanje
1.008903846153846,2.586908284030187e-06,1.005,1.012,0.010442307692307692,1.938979289940732e-06,0.007,0.014,0.008846153846153846,1.95710059171605e-06,0.006,0.012,1.0089985941179467,2.5870680069317586e-06,1.005080593783404,1.0121205461801475,Mirovanje
1.0084903846153845,1.980676774371304e-06,1.006,1.012,0.010846153846153847,1.7071005917158676e-06,0.008,0.014,0.0085,2.1730769230769655e-06,0.004,0.011,1.0085864432695308,1.9922221479173885e-06,1.0060675921626736,1.012109183833444,Mirovanje
1.008846153846154,2.534023667788432e-06,1.003,1.012,0.010865384615384614,2.1357248520709226e-06,0.008,0.015,0.008826923076923078,1.4700443786982238e-06,0.006,0.013,1.008945055111942,2.548842083172076e-06,1.0030722805461227,1.0121235102496138,Mirovanje
1.0085576923076922,2.3428254434243456e-06,1.005,1.012,0.01075,1.5528846153845265e-06,0.008,0.015,0.00885576923076923,1.4695821005917636e-06,0.006,0.012,1.0086553564059577,2.343147416539182e-06,1.0050895482493087,1.012102761581056,Mirovanje
1.0086634615384613,1.8771264789219089e-06,1.006,1.012,0.010471153846153845,2.2491678994082014e-06,0.007,0.014,0.008913461538461539,1.5213572485207248e-06,0.006,0.011,1.0087590599948202,1.8800322132417335e-06,1.0060561614542203,1.012102761581056,Mirovanje
1.0085673076923076,2.4762389048138544e-06,1.005,1.012,0.010374999999999999,1.965144230769186e-06,0.007,0.014,0.008836538461538462,1.4252034023668972e-06,0.005,0.011,1.0086610583973643,2.4750419398422707e-06,1.0050721367145743,1.012119558155063,Mirovanje
1.008778846153846,2.4222448222754878e-06,1.005,1.013,0.010538461538461536,2.3062130177514022e-06,0.007,0.013,0.008548076923076924,1.8246116863905598e-06,0.005,0.011,1.0088721525284823,2.422160239268223e-06,1.0050721367145743,1.0131149984083743,Mirovanje
1.0086730769230767,2.431582840189961e-06,1.003,1.011,0.01079807692307692,1.96884245562122e-06,0.007,0.014,0.008423076923076924,1.3979289940828463e-06,0.005,0.011,1.0087677076538342,2.4331486743189856e-06,1.0030648034897844,1.0111112698412572,Mirovanje
1.008548076923077,2.6130732240225996e-06,1.005,1.012,0.011384615384615385,2.6789940828401775e-06,0.008,0.015,0.008346153846153847,1.5340236686390727e-06,0.005,0.011,1.0086489508231653,2.6113110200842726e-06,1.0050815887279996,1.0121462344938106,Mirovanje
1.0086634615384613,2.050203401715578e-06,1.005,1.011,0.010644230769230767,1.8638128698224434e-06,0.007,0.014,0.008134615384615386,1.3472633136094275e-06,0.005,0.012,1.0087540134624573,2.051861845542291e-06,1.0051034772599285,1.0111112698412572,Mirovanje
0.9795865384615384,0.028389146357248207,0.002,1.012,-0.01848076923076923,0.02844307655325444,-0.997,0.015,0.009173076923076923,1.4316198224852104e-05,0.005,0.03,1.0083926320155145,6.3093122073532015e-06,0.9974532570501737,1.0121235102496138,Mirovanje
0.0011250000000000001,1.3016826923076903e-06,-0.001,0.005,-0.9967884615384615,2.474482249215093e-06,-1.002,-0.993,0.030778846153846164,1.2876294378692203e-06,0.028,0.033,0.997265475143704,2.4759325558676437e-06,0.9935154754708152,1.0024799249860317,Mirovanje
0.0012115384615384616,1.4552514792899408e-06,-0.001,0.005,-0.9968942307692307,2.7676590248493227e-06,-1.002,-0.993,0.030730769230769242,2.273668639052231e-06,0.026,0.035,0.9973703871149528,2.762829246272247e-06,0.9934535721411444,1.0024509963085475,Mirovanje
0.0011634615384615383,1.7328957100591736e-06,-0.002,0.005,-0.9966538461538461,2.5532544388751077e-06,-1.0,-0.993,0.03100000000000001,1.730769230767976e-06,0.028,0.034,0.9971382452941747,2.579387039181036e-06,0.9933951882307464,1.0005138679698546,Mirovanje
0.001153846153846154,1.4186390532544376e-06,-0.001,0.004,-0.9961153846153846,2.986686391204252e-06,-1.0,-0.991,0.030423076923076935,1.3786982248513218e-06,0.028,0.033,0.9965819496568865,2.9560796172001247e-06,0.991454487104678,1.0004518978941466,Mirovanje
0.0010480769230769233,1.2573039940828387e-06,-0.001,0.004,-0.9965288461538463,2.518398669160149e-06,-1.0,-0.992,0.03054807692307693,1.2284578402355951e-06,0.028,0.033,0.996998753438461,2.5144883089023295e-06,0.9925159948333326,1.0004808843751087,Mirovanje
0.0010961538461538463,1.3753698224852078e-06,-0.001,0.004,-0.996144230769231,1.6811205633127102e-06,-1.001,-0.994,0.030375000000000006,1.1766826923068508e-06,0.028,0.032,0.9966091116376998,1.682446868267462e-06,0.9944531160391625,1.0014819019832557,Mirovanje
0.0012115384615384616,1.6475591715976333e-06,-0.002,0.004,-0.9964326923076923,2.803161982978253e-06,-1.002,-0.993,0.030615384615384624,1.6020710059164948e-06,0.028,0.034,0.9969052828050634,2.7898076646604153e-06,0.9934233739951964,1.002420071626661,Mirovanje
0.0010673076923076925,1.9089312130177505e-06,-0.002,0.004,-0.9966826923076924,2.043546598606838e-06,-1.0,-0.993,0.030692307692307703,1.732248520709169e-06,0.027,0.034,0.9971575673003498,2.0167448790964215e-06,0.9934530688462339,1.0004848824445074,Mirovanje
0.0011923076923076924,2.3284023668639053e-06,-0.001,0.008,-0.9967019230769231,2.363073225764012e-06,-1.001,-0.993,0.030557692307692317,1.6120562130168912e-06,0.028,0.034,0.9971729250890686,2.378623156995552e-06,0.9934530688462339,1.001511357898651,Mirovanje
0.0012403846153846154,1.6441383136094673e-06,-0.002,0.005,-0.9964711538461538,2.191475592994152e-06,-1.001,-0.993,0.030750000000000013,1.6490384615365245e-06,0.027,0.034,0.9969479249143476,2.1811628222456747e-06,0.993455082024346,1.0014494495480037,Mirovanje
0.0012692307692307692,1.4467455621301775e-06,-0.001,0.004,-0.9965673076923077,1.764700444883971e-06,-1.001,-0.994,0.030682692307692314,1.4858542899401838e-06,0.027,0.034,0.9970418135932105,1.756562146515428e-06,0.9944832829163093,1.001479904940683,Mirovanje
0.0011442307692307691,1.7580436390532544e-06,-0.002,0.005,-0.996326923076923,1.700813611171803e-06,-0.999,-0.993,0.030567307692307703,1.418546597631732e-06,0.028,0.034,0.9967979726151239,1.6864057632570706e-06,0.9934842726485407,0.9994853675767345,Mirovanje
0.0012211538461538462,1.7299371301775175e-06,-0.001,0.005,-0.9965480769230768,3.11307322609089e-06,-1.001,-0.991,0.030884615384615396,1.2943786982235958e-06,0.028,0.033,0.9970288161997716,3.0973595903649453e-06,0.9914892838553526,1.001479904940683,Mirovanje
0.0010192307692307692,9.996301775147913e-07,-0.001,0.004,-0.9964038461538463,3.990754438021327e-06,-1.001,-0.988,0.03058653846153847,2.011741863903972e-06,0.028,0.034,0.9968752245402395,3.988620924100239e-06,0.988518082788575,1.0014804042016996,Mirovanje
0.001548076923076923,1.6130732248520725e-06,-0.002,0.005,-0.9967211538461539,8.816475591699735e-06,-1.008,-0.987,0.030923076923076935,1.3402366863893029e-06,0.028,0.034,0.9972034210671814,8.798550371391656e-06,0.9874578472015907,1.0084765738479007,Mirovanje
0.001480769230769231,2.153476331360946e-06,-0.001,0.007,-0.9965384615384616,4.1715976339951055e-06,-1.003,-0.989,0.030894230769230778,1.921505177513534e-06,0.027,0.035,0.9970203731560102,4.173588772582448e-06,0.9894255909364786,1.0034794467252428,Mirovanje
0.0011923076923076924,1.386094674556212e-06,-0.002,0.005,-0.996125,1.532451924468603e-06,-0.999,-0.993,0.030788461538461546,1.6860207100577842e-06,0.027,0.034,0.9966029479799483,1.5352315225758417e-06,0.9934842726485407,0.9994828662863611,Mirovanje
0.001298076923076923,1.632303994082841e-06,-0.002,0.005,-0.9959711538461538,2.4895525161383603e-06,-0.999,-0.992,0.03057692307692309,1.3786982248509966e-06,0.028,0.034,0.9964427775703855,2.4641047380313807e-06,0.9924555405659238,0.9995168832991267,Mirovanje
0.0014134615384615386,1.7809726331360938e-06,-0.002,0.004,-0.996403846153846,2.4907544392549497e-06,-1.001,-0.993,0.030519230769230778,1.92270710059055e-06,0.027,0.034,0.9968739834831227,2.501439106294967e-06,0.9934535721411444,1.0014494495480037,Mirovanje
0.0011923076923076924,1.3668639053254426e-06,-0.002,0.004,-0.9966634615384616,1.742511095637056e-06,-1.0,-0.994,0.03050000000000001,1.7307692307677591e-06,0.028,0.034,0.9971322986424078,1.74631180094309e-06,0.9943942879964668,1.0004209114167897,Mirovanje
0.0012692307692307692,1.6390532544378696e-06,-0.001,0.005,-0.9966826923076924,1.9666235216986294e-06,-1.0,-0.994,0.030278846153846163,1.412629437868478e-06,0.028,0.033,0.9971448696717696,1.935810346354039e-06,0.9944526132501237,1.0004518978941466,Mirovanje
0.0010576923076923077,1.5159023668639042e-06,-0.002,0.004,-0.9966826923076924,1.8320081371925312e-06,-1.001,-0.993,0.03062500000000001,1.6766826923067003e-06,0.028,0.034,0.9971552499991743,1.8304760067699988e-06,0.9934575984912491,1.0013935290384093,Mirovanje
0.0011442307692307693,1.7772744082840233e-06,-0.002,0.005,-0.9967019230769231,2.0169193800656515e-06,-1.001,-0.993,0.030451923076923085,1.6130732248505805e-06,0.027,0.033,0.9971693770326074,1.9931237864589946e-06,0.9934535721411444,1.0014499488242035,Mirovanje
0.0012788461538461538,1.9126294378698233e-06,-0.001,0.005,-0.996798076923077,2.6996116870847686e-06,-1.001,-0.993,0.030798076923076935,2.238073224850772e-06,0.028,0.035,0.9972766467329331,2.7033426547307116e-06,0.9934842726485407,1.0014494495480037,Mirovanje
0.001326923076923077,1.7392751479289935e-06,-0.002,0.004,-0.9963365384615385,2.011741864871297e-06,-1.0,-0.993,0.030317307692307706,1.4473927514777312e-06,0.027,0.033,0.9968001653101812,2.0265914414396846e-06,0.9935159787341118,1.0005118689950658,Mirovanje
0.0011634615384615386,1.3098187869822479e-06,-0.001,0.004,-0.9965288461538461,2.018398669756394e-06,-0.999,-0.993,0.030153846153846163,1.3801775147919727e-06,0.027,0.033,0.9969869880479384,2.003355407675933e-06,0.9934575984912491,0.9994808652495555,Mirovanje
0.0011826923076923078,1.7070081360946752e-06,-0.002,0.004,-0.9963365384615385,2.511741865274253e-06,-1.001,-0.992,0.03053846153846155,1.3446745562122314e-06,0.028,0.033,0.9968066743765177,2.5116107346123684e-06,0.9925180099121628,1.0014494495480037,Mirovanje
0.0011826923076923078,1.1877773668639026e-06,-0.001,0.004,-0.9965096153846154,2.2306767764046498e-06,-1.0,-0.994,0.030346153846153856,1.2263313609463906e-06,0.028,0.034,0.9969734823228629,2.221698870430444e-06,0.9944229482468715,1.0005138679698546,Mirovanje
0.0012596153846153846,1.2883690828402358e-06,0.0,0.005,-0.996528846153846,2.9222448236776444e-06,-1.001,-0.992,0.030269230769230777,1.062130177513867e-06,0.028,0.033,0.9969904260274335,2.917332713403553e-06,0.9924535253602558,1.0014199918116273,Mirovanje
0.0013076923076923079,1.5784023668639057e-06,-0.001,0.005,-0.9962115384615384,2.6860207106294e-06,-1.0,-0.993,0.030634615384615392,1.5395710059163238e-06,0.028,0.034,0.9966848791807402,2.674689395743002e-06,0.993455082024346,1.0004823836530057,Mirovanje
0.0012884615384615385,2.628328402366866e-06,-0.003,0.006,-0.9967596153846152,2.644138314300548e-06,-1.002,-0.993,0.03028846153846155,9.744822485193783e-07,0.028,0.032,0.9972223381850636,2.637070869004887e-06,0.9934842726485407,1.0024195728336514,Mirovanje
0.001173076923076923,1.508505917159764e-06,-0.001,0.005,-0.9969134615384616,2.2521264800845486e-06,-1.0,-0.994,0.030355769230769238,1.4407359467446396e-06,0.027,0.034,0.9973776837865062,2.2558846646258957e-06,0.994457138342322,1.0005118689950658,Mirovanje
0.0010480769230769233,1.3919193786982232e-06,-0.001,0.004,-0.996576923076923,2.301775149149421e-06,-1.0,-0.993,0.030076923076923088,1.5325443786966871e-06,0.027,0.033,0.9970327042567758,2.296257805012303e-06,0.9934233739951964,1.0004518978941466,Mirovanje
0.0012884615384615385,1.5129437869822513e-06,-0.001,0.004,-0.9965961538461537,2.0676775162042915e-06,-1.001,-0.993,0.03064423076923078,1.4022744082830543e-06,0.028,0.033,0.997069474753637,2.0682837373886542e-06,0.9933951882307464,1.0015118571439878,Mirovanje
0.0010673076923076923,1.3897004437869826e-06,-0.001,0.005,-0.9966057692307693,1.892659024727017e-06,-1.0,-0.993,0.030278846153846163,2.258783284022378e-06,0.027,0.035,0.997068032236555,1.8871688473032222e-06,0.9935154754708152,1.0005123687391375,Mirovanje
0.0014423076923076926,1.4197485207100584e-06,-0.001,0.006,-0.996326923076923,2.258505918506515e-06,-1.001,-0.992,0.03028846153846155,1.5706360946733536e-06,0.027,0.033,0.996789742043948,2.2678482671789624e-06,0.9924540291620565,1.0014204911025137,Mirovanje
0.0011153846153846155,1.5828402366863906e-06,-0.002,0.005,-0.9966057692307693,2.5657359477015973e-06,-1.0,-0.993,0.03018269230769232,1.3800850591703636e-06,0.027,0.033,0.9970648252585602,2.561155193592235e-06,0.9933670016665542,1.0004503985705637,Mirovanje
0.0014134615384615386,1.9155880177514812e-06,-0.001,0.005,-0.996048076923077,2.391919379673979e-06,-1.0,-0.993,0.03050000000000001,1.5769230769213096e-06,0.027,0.033,0.9965176997305777,2.3779698323789233e-06,0.9934530688462339,1.0004803846153107,Mirovanje
0.0014134615384615386,1.5694341715976365e-06,-0.002,0.005,-0.9966826923076924,3.0435465986355936e-06,-1.003,-0.992,0.030192307692307702,1.4053254437850979e-06,0.027,0.033,0.9971423888860999,3.0370557529968423e-06,0.9924862719453604,1.0034490520200812,Mirovanje
0.0011923076923076924,1.7322485207100592e-06,-0.002,0.004,-0.9966153846153846,2.0059171610409265e-06,-1.0,-0.992,0.030615384615384624,1.9097633136083095e-06,0.027,0.035,0.997088054441191,2.0078445267524003e-06,0.9924862719453604,1.0004808843751087,Mirovanje
0.001028846153846154,1.7780140532544373e-06,-0.002,0.005,-0.996701923076923,1.8438424566058487e-06,-1.0,-0.993,0.03023076923076924,1.3313609467438797e-06,0.028,0.033,0.99716237206845,1.8383462065951761e-06,0.9934530688462339,1.0004803846153107,Mirovanje
0.0011250000000000001,1.4747596153846144e-06,-0.002,0.005,-0.9963942307692307,2.70035133242974e-06,-1.0,-0.992,0.03053846153846155,1.2100591715960866e-06,0.028,0.033,0.9968640883611083,2.7008744378775873e-06,0.9925159948333326,1.0004518978941466,Mirovanje
0.0011346153846153847,1.3664940828402367e-06,-0.001,0.004,-0.9964326923076924,2.5147004449888044e-06,-1.002,-0.992,0.03071153846153847,1.1283284023658278e-06,0.027,0.033,0.996907768131932,2.5076074409158267e-06,0.9924535253602558,1.0024490011965694,Mirovanje
0.0008365384615384617,1.0598280325443782e-05,-0.03,0.004,-0.9960192307692307,2.23039940949743e-06,-0.999,-0.992,0.030471153846153856,1.4607063609457576e-06,0.027,0.034,0.9964916192059534,2.2413138357491036e-06,0.9924555405659238,0.9994813655091325,Mirovanje
0.0012115384615384616,1.8783284023668633e-06,-0.001,0.005,-0.9962788461538461,2.0280140545780867e-06,-0.999,-0.992,0.03050000000000001,1.3846153846141422e-06,0.028,0.033,0.9967479788328599,2.014769531988314e-06,0.9924842568020915,0.9995203849847186,Mirovanje
0.0014134615384615386,1.8963572485207115e-06,-0.001,0.005,-0.9967115384615385,2.224482249402193e-06,-1.001,-0.993,0.030528846153846163,1.633783284022295e-06,0.027,0.033,0.9971817342671618,2.242690089526711e-06,0.9934857824850841,1.001511357898651,Mirovanje
0.0011634615384615388,1.50212647928994e-06,-0.002,0.004,-0.9964519230769231,3.0746116869151408e-06,-1.002,-0.991,0.030250000000000006,1.706730769229824e-06,0.027,0.033,0.9969132717725546,3.063179125573079e-06,0.9915492927736875,1.0024494999749363,Mirovanje
0.0010096153846153846,9.902921597633125e-07,-0.001,0.004,-0.9962596153846153,2.422984468286593e-06,-1.0,-0.993,0.030250000000000013,1.9374999999984682e-06,0.027,0.034,0.99672072956021,2.4411111168021193e-06,0.9933951882307464,1.0005138679698546,Mirovanje
0.0013653846153846155,1.135724852071006e-06,-0.001,0.004,-0.9963461538461539,2.3032544392842524e-06,-1.0,-0.992,0.030701923076923085,1.6899963017739678e-06,0.028,0.034,0.996821420960556,2.3143295623251348e-06,0.9925507543697702,1.0005138679698546,Mirovanje
0.0017403846153846154,2.826830621301776e-06,0.0,0.006,-0.8428365384615385,0.2833129252034028,-1.001,1.001,0.02686538461538462,0.00016186649408283908,-0.017,0.034,0.9972826715082732,3.100032398117847e-06,0.9935200048313069,1.001364568975755,Mirovanje
0.007201923076923078,1.8726886094674194e-06,0.004,0.011,0.9991923076923077,2.4437869821092306e-06,0.995,1.002,-0.016634615384615387,1.6741863905325228e-06,-0.02,-0.014,0.9993584938569529,2.4372944238404415e-06,0.9951487326023181,1.002212053409856,Mirovanje
0.00689423076923077,2.190735946745498e-06,0.003,0.011,0.9993653846153846,2.3088017753192247e-06,0.995,1.004,-0.016192307692307697,1.9053254437867363e-06,-0.02,-0.012,0.9995223775728822,2.3148079760781926e-06,0.9951411960119027,1.004124494273494,Mirovanje
0.007125000000000001,2.1286057692307406e-06,0.003,0.011,0.9993461538461538,1.7455621300621615e-06,0.997,1.002,-0.01579807692307693,2.2380732248517476e-06,-0.019,-0.012,0.9994985949887176,1.7509232714818523e-06,0.9971308840869387,1.0021935940725224,Mirovanje
0.007461538461538463,2.3446745562129604e-06,0.005,0.012,0.9996057692307693,2.66188979225479e-06,0.996,1.003,-0.01604807692307693,1.0649963017748607e-06,-0.019,-0.014,0.9997641257976433,2.6735373048758504e-06,0.9961450697564085,1.003172467724269,Mirovanje
0.007403846153846154,1.7792159763313468e-06,0.005,0.01,0.9990192307692307,3.0380917162009524e-06,0.994,1.003,-0.01601923076923077,1.6919378698223393e-06,-0.019,-0.013,0.9991768165038326,3.0547458819141227e-06,0.9941378174076269,1.003102188214142,Mirovanje
0.0071057692307692315,1.7291974852070373e-06,0.004,0.011,0.9990384615384615,4.72928994099675e-06,0.99,1.005,-0.015961538461538465,1.5177514792897987e-06,-0.019,-0.013,0.9991928624156491,4.7102360831718926e-06,0.9901747320549036,1.0051159137134382,Mirovanje
0.007615384615384616,2.5251479289940804e-06,0.003,0.011,0.9992115384615385,3.7437130177009337e-06,0.995,1.004,-0.01600961538461539,1.2595229289937633e-06,-0.019,-0.013,0.999370691876588,3.749064263702806e-06,0.9951452155338938,1.0041618395457974,Mirovanje
0.0075096153846153845,2.3652921597633165e-06,0.003,0.012,0.9990769230769231,2.551775148629254e-06,0.996,1.003,-0.016105769230769233,1.8253513313608175e-06,-0.02,-0.014,0.9992370593249156,2.5300409258743883e-06,0.9961606296175332,1.0031859249411346,Mirovanje
0.007192307692307693,1.828402366863891e-06,0.004,0.01,0.9993365384615382,3.030972632878104e-06,0.995,1.004,-0.016125000000000004,1.4362980769229037e-06,-0.019,-0.014,0.9994941292500494,3.0432869929652995e-06,0.9951311471358939,1.0041857397912002,Mirovanje
0.006750000000000002,1.9374999999999522e-06,0.003,0.01,0.9992980769230768,2.1707655326608233e-06,0.996,1.003,-0.01593269230769231,1.2550850591713228e-06,-0.02,-0.014,0.999449474468303,2.1710619557691047e-06,0.996169664264075,1.0031565181964377,Mirovanje
0.00691346153846154,2.0405880177514144e-06,0.002,0.011,0.9992692307692308,2.1775147927005634e-06,0.995,1.003,-0.015711538461538464,1.532174556212961e-06,-0.019,-0.013,0.9994184435042388,2.1690143340302726e-06,0.9951467228504549,1.0031595087522223,Mirovanje
0.007221153846153846,1.7107063609467327e-06,0.004,0.01,0.9991057692307692,2.1715051775617056e-06,0.996,1.003,-0.01564423076923077,1.440735946745507e-06,-0.018,-0.013,0.9992559044490593,2.185500615481395e-06,0.9961375407040938,1.0031934010947239,Mirovanje
0.0075769230769230774,1.8402366863905077e-06,0.005,0.01,0.9995480769230769,2.1323039935960963e-06,0.995,1.003,-0.016163461538461543,1.5598187869820526e-06,-0.019,-0.013,0.9997091690668464,2.134975982892584e-06,0.9951452155338938,1.0031246183799896,Mirovanje
0.007211538461538463,2.9552514792898947e-06,0.004,0.012,0.9992307692307691,1.7352071008946979e-06,0.996,1.003,-0.015750000000000004,1.5336538461537203e-06,-0.019,-0.012,0.9993831546136622,1.7333513683270851e-06,0.9961450697564085,1.0031301012331348,Mirovanje
0.0070384615384615394,1.8062130177514578e-06,0.003,0.01,0.9990673076923076,2.639700444007076e-06,0.996,1.002,-0.016028846153846157,1.297244822484969e-06,-0.02,-0.013,0.9992222305378573,2.6263066417175907e-06,0.9961465755600428,1.0021681495637347,Mirovanje
0.00739423076923077,1.7772744082839985e-06,0.005,0.011,0.9993653846153846,2.5780325445534658e-06,0.996,1.004,-0.015730769230769232,1.658284023668547e-06,-0.019,-0.012,0.9995182560918898,2.5730467188012085e-06,0.9961410542689223,1.0041439139884283,Mirovanje
0.007096153846153848,2.0869082840236223e-06,0.002,0.01,0.998951923076923,2.007303993911691e-06,0.996,1.002,-0.015259615384615389,1.422984467455338e-06,-0.018,-0.012,0.9990954227965182,2.00922396886849e-06,0.9961094317393044,1.0021796246182617,Mirovanje
0.007048076923076924,2.0649963017751086e-06,0.004,0.01,0.9991442307692308,2.334966715977771e-06,0.995,1.003,-0.01579807692307693,1.6996116863903128e-06,-0.02,-0.012,0.9992958594957296,2.3332716140300747e-06,0.9951165760854354,1.0031246183799896,Mirovanje
0.007048076923076924,2.199611686390474e-06,0.003,0.011,0.9991538461538461,2.91863905355072e-06,0.995,1.004,-0.015759615384615386,1.3172152366861954e-06,-0.018,-0.013,0.9993047430107057,2.91521169226705e-06,0.9951693323249065,1.0041618395457974,Mirovanje
0.007125000000000002,1.5709134615383844e-06,0.005,0.011,0.9990192307692307,2.211168639409955e-06,0.996,1.003,-0.015894230769230775,1.44073594674529e-06,-0.019,-0.012,0.9991725720582074,2.2097081249228268e-06,0.9961310154793896,1.0031455527489517,Mirovanje
0.007000000000000001,2.9230769230768617e-06,0.002,0.011,0.9992211538461538,1.3453217455605682e-06,0.996,1.002,-0.015500000000000005,1.2884615384612633e-06,-0.019,-0.013,0.999367989532077,1.3426524608783907e-06,0.9961310154793896,1.0021566743778139,Mirovanje
0.0070384615384615394,2.210059171597629e-06,0.003,0.011,0.9993365384615385,2.223280325286403e-06,0.996,1.002,-0.01597115384615385,1.1626294378696916e-06,-0.018,-0.013,0.9994906263507489,2.218606218407082e-06,0.9961375407040938,1.0021596679172435,Mirovanje
0.007115384615384616,2.525147928994067e-06,0.004,0.012,0.9989134615384615,2.579049556805657e-06,0.995,1.002,-0.01576923076923077,1.312130177514605e-06,-0.018,-0.013,0.9990651931343459,2.5571751243180785e-06,0.995123107962025,1.0021621625266042,Mirovanje
0.007500000000000002,2.0961538461537746e-06,0.005,0.012,0.9990192307692307,1.4996301775926923e-06,0.996,1.001,-0.01584615384615385,1.6301775147927106e-06,-0.019,-0.013,0.9991749088248132,1.501574926177085e-06,0.9961305135372573,1.00118829397871,Mirovanje
0.006990384615384616,1.990292159763287e-06,0.004,0.011,0.9993076923076922,2.2130177511625604e-06,0.996,1.003,-0.015692307692307696,1.5014792899406874e-06,-0.019,-0.013,0.9994570858312938,2.2162739253817065e-06,0.9961310154793896,1.0031595087522223,Mirovanje
0.006884615384615387,1.7943786982248141e-06,0.003,0.01,0.9993076923076922,2.366863905201022e-06,0.996,1.003,-0.01592307692307693,1.590236686390366e-06,-0.018,-0.012,0.9994599483879567,2.369260651002847e-06,0.9961450697564085,1.003144057451371,Mirovanje
0.006855769230769231,2.0657359467455695e-06,0.004,0.011,0.9994711538461538,2.1914755913288175e-06,0.996,1.003,-0.01582692307692308,1.489275147928881e-06,-0.019,-0.013,0.9996217480701634,2.187708227574525e-06,0.9961164590548638,1.0031684803660847,Mirovanje
0.007153846153846154,2.072485207100582e-06,0.003,0.011,0.99925,2.2644230768253948e-06,0.996,1.003,-0.01615384615384616,1.5724852071003327e-06,-0.019,-0.013,0.9994079877958572,2.2700836822542314e-06,0.996175185396625,1.0031978867601345,Mirovanje
0.007490384615384617,1.6537536982248293e-06,0.004,0.011,0.9992692307692308,2.273668639696247e-06,0.995,1.003,-0.01567307692307693,1.0661982248517683e-06,-0.018,-0.013,0.9994215666407755,2.2725179131821704e-06,0.9951532545291705,1.0031520323460446,Mirovanje
0.0070192307692307715,1.8073224852070544e-06,0.003,0.01,0.9991634615384615,2.2713572487287337e-06,0.994,1.003,-0.01595192307692308,1.353457840236479e-06,-0.019,-0.013,0.9993170217404916,2.2785212523412923e-06,0.9941378174076269,1.0031455527489517,Mirovanje
0.007076923076923078,1.782544378698211e-06,0.004,0.01,0.9994230769230769,2.397928993813636e-06,0.996,1.003,-0.01600961538461539,1.6825998520707134e-06,-0.021,-0.013,0.9995780786155654,2.40513582960844e-06,0.9961375407040938,1.0031520323460446,Mirovanje
0.007125000000000001,1.6286057692307487e-06,0.005,0.011,0.9991057692307692,2.2676590235581884e-06,0.995,1.002,-0.015692307692307696,1.6745562130176042e-06,-0.02,-0.013,0.999256048452958,2.2727071025130385e-06,0.9951376789168421,1.0021596679172435,Mirovanje
0.007105769230769233,1.9407359467455123e-06,0.004,0.011,0.9994134615384614,2.5694341713178304e-06,0.996,1.003,-0.015875000000000004,1.301682692307518e-06,-0.018,-0.013,0.9995664146171443,2.5693078887778498e-06,0.9961375407040938,1.0031859249411346,Mirovanje
0.007067307692307693,2.697392751479266e-06,0.003,0.011,0.9994519230769231,1.4399963014222195e-06,0.997,1.002,-0.01584615384615385,1.2647928994080843e-06,-0.018,-0.013,0.9996045022437876,1.435247795833483e-06,0.9971308840869387,1.002168648481881,Mirovanje
0.007105769230769233,2.0945821005917043e-06,0.003,0.01,0.9987692307692307,2.6775147928814746e-06,0.994,1.003,-0.01613461538461539,1.1549556213015012e-06,-0.019,-0.014,0.9989264342547866,2.7001008641169832e-06,0.9941453616046297,1.0031759566496796,Mirovanje
0.007067307692307694,1.6397004437869315e-06,0.004,0.01,0.9992403846153846,2.1633690829858665e-06,0.996,1.003,-0.015798076923076925,1.5073039940826575e-06,-0.019,-0.013,0.9993918255977616,2.16162068078507e-06,0.9961254941020233,1.0031620008752322,Mirovanje
0.007076923076923077,1.7825443786981908e-06,0.005,0.01,0.9994134615384614,1.9925110945617774e-06,0.996,1.003,-0.01601923076923077,1.3265532544376587e-06,-0.019,-0.013,0.9995684509674617,1.9791382009914926e-06,0.9961375407040938,1.0031455527489517,Mirovanje
0.0071634615384615396,1.5790495562130214e-06,0.004,0.01,0.9992980769230768,2.2861501475235357e-06,0.995,1.003,-0.015865384615384618,1.0203402366861154e-06,-0.018,-0.013,0.9994509861956872,2.2838847761885717e-06,0.9951532545291705,1.0031525307748566,Mirovanje
0.007134615384615386,2.5203402366863755e-06,0.004,0.012,0.9992115384615385,2.051405325054212e-06,0.996,1.002,-0.01591346153846154,1.7328957100590779e-06,-0.02,-0.013,0.9993658489992452,2.0440847871006085e-06,0.9961375407040938,1.0021442012006057,Mirovanje
0.007086538461538463,2.1559726331360415e-06,0.003,0.012,0.9986826923076924,2.1781619825578247e-06,0.996,1.003,-0.015778846153846157,1.97993713017743e-06,-0.019,-0.012,0.9988345395719515,2.1875580874519684e-06,0.9961375407040938,1.003179445562956,Mirovanje
0.006903846153846154,2.183062130177504e-06,0.003,0.01,0.9990865384615385,3.040588017699797e-06,0.995,1.003,-0.016105769230769233,1.4022744082838674e-06,-0.019,-0.012,0.9992419931808634,3.035217781666155e-06,0.9951532545291705,1.0031684803660847,Mirovanje
0.007086538461538463,2.1752034023668205e-06,0.004,0.01,0.9990865384615385,1.9828957100731515e-06,0.996,1.002,-0.01590384615384616,1.3176775147925065e-06,-0.019,-0.014,0.9992399867814709,1.9872785046448627e-06,0.9961209765886873,1.0021925962608185,Mirovanje
0.006865384615384616,1.6357248520709375e-06,0.004,0.01,0.9992403846153846,2.932599852401019e-06,0.995,1.003,-0.015980769230769236,1.615014792899223e-06,-0.019,-0.011,0.9993933733384173,2.9334041821149626e-06,0.9951170785390029,1.003144057451371,Mirovanje
0.007403846153846154,2.5676775147928757e-06,0.003,0.01,0.9987980769230769,2.6996116866406794e-06,0.994,1.003,-0.015817307692307696,1.4570081360945099e-06,-0.018,-0.013,0.9989527693743542,2.691482385075439e-06,0.994179058318973,1.0031520323460446,Mirovanje
0.00725,1.8990384615384618e-06,0.004,0.011,0.9991634615384615,2.3867418637024684e-06,0.995,1.003,-0.015576923076923082,9.748520710056252e-07,-0.018,-0.013,0.999312610135551,2.3937625339698343e-06,0.9951311471358939,1.0031934010947239,Mirovanje
0.006817307692307694,1.7839312130177204e-06,0.004,0.01,0.9991153846153845,2.0828402366168675e-06,0.996,1.003,-0.01579807692307693,1.6803809171596286e-06,-0.019,-0.011,0.9992652624462062,2.0891144685286633e-06,0.9961305135372573,1.0031365809300345,Mirovanje
0.007086538461538463,1.8482803254437727e-06,0.003,0.01,0.9992403846153846,2.1633690826527996e-06,0.996,1.003,-0.01605769230769231,1.4005177514790396e-06,-0.02,-0.014,0.9993961502738529,2.1617408791918535e-06,0.9961390465191092,1.0031520323460446,Mirovanje
0.006942307692307693,1.7082100591715726e-06,0.003,0.01,0.9989423076923077,2.0735946741901046e-06,0.995,1.002,-0.016000000000000004,1.6923076923075833e-06,-0.02,-0.013,0.9990962567544213,2.0735854568965095e-06,0.9951467228504549,1.0021796246182617,Mirovanje
0.006932692307692308,1.8512389053254133e-06,0.003,0.01,0.9987788461538462,2.3453217458113684e-06,0.996,1.003,-0.015788461538461543,1.974482248520541e-06,-0.019,-0.012,0.9989296026359044,2.3412853665805144e-06,0.9961029063304655,1.0031301012331348,Mirovanje
0.006596153846153848,2.259985207100546e-06,0.003,0.009,0.999153846153846,2.6301775146730932e-06,0.995,1.003,-0.016192307692307697,1.6937869822483426e-06,-0.02,-0.013,0.999308794525949,2.6254907864453614e-06,0.9951467228504549,1.0031380762387598,Mirovanje
-0.9534038461538461,0.0010815869082844154,-1.057,-0.859,0.13822115384615385,0.0077298645525147765,-0.2,0.423,-0.16091346153846153,0.006214405972633133,-0.364,0.057,0.9838687110347343,0.0010053402160818958,0.8752034049293913,1.0598348928017043,Jaz
-0.9969711538461539,0.06786558570636114,-1.806,-0.435,0.08111538461538462,0.04667133284023668,-0.399,0.56,-0.012173076923076924,0.06945629696745564,-0.615,0.506,1.0578693640635015,0.06558499511434457,0.6282173190863175,1.8280068380616086,Jaz
-0.996923076923077,0.10175593639053249,-1.742,-0.015,0.06922115384615385,0.04430055686020709,-0.612,0.478,-0.04619230769230769,0.08029080917159763,-0.586,0.826,1.0626753995067355,0.09784921643704614,0.4799520809414206,1.7798620733079291,Jaz
-1.0160576923076923,0.07943763128698222,-1.917,-0.537,0.0879423076923077,0.02997486205621302,-0.371,0.601,-0.0421826923076923,0.07937724546967455,-0.813,0.809,1.0682485613332515,0.0895212131325156,0.5623139692378272,1.9429446723980588,Jaz
-0.9660096153846154,0.07918141336908258,-1.697,-0.09,0.023615384615384618,0.0403612174556213,-0.588,0.39,-0.05835576923076924,0.07645188304363906,-0.596,0.714,1.0281198916089271,0.07610166155497078,0.47938815171007304,1.7812807190333588,Jaz
-1.0046923076923078,0.10458180917159732,-2.051,-0.101,0.027192307692307696,0.045136386094674574,-0.537,0.563,-0.106625,0.04576988822115384,-0.669,0.506,1.057919042358967,0.0978103286604397,0.47149655353989595,2.1283575827383894,Jaz
-1.0278365384615384,0.12508500212647955,-2.135,-0.003,-0.0021923076923076926,0.08385811686390535,-0.775,0.625,-0.07641346153846153,0.0886332617418639,-0.831,0.831,1.116769780868564,0.11269341038493375,0.311353496848839,2.1677603649850226,Jaz
-1.028971153846154,0.11737114339866839,-2.207,-0.242,0.08039423076923077,0.07776748881286981,-0.958,0.796,-0.07202884615384617,0.07054995109097635,-0.767,0.785,1.1081933471435763,0.10802911111594726,0.4580698636671048,2.226574499090475,Jaz
-0.983875,0.08596993629807648,-1.719,-0.163,0.04653846153846154,0.04242022928994083,-0.445,0.455,-0.031875000000000014,0.07303439783653848,-1.049,0.579,1.0432816121695152,0.08417990078590032,0.5523133168772957,2.0357224761739996,Jaz
-0.9474999999999999,0.11135849999999947,-2.185,-0.026,0.04042307692307693,0.052613397928994075,-0.567,0.748,-0.07597115384615385,0.07809123955251475,-0.765,0.849,1.0283074224902733,0.08980887369756463,0.4226239463163439,2.196150040411629,Jaz
-0.988076923076923,0.1140478017751475,-1.731,0.042,0.04713461538461538,0.0486725972633136,-0.491,0.62,-0.04975961538461538,0.10808658644600591,-0.728,0.928,1.067309976916055,0.1126500958677572,0.35077628198040983,1.8534546123388078,Jaz
-0.9807307692307691,0.0911506967455622,-2.003,-0.342,0.05758653846153845,0.05259030020340237,-0.393,0.843,-0.058374999999999996,0.09410888822115385,-0.703,0.732,1.0525977482744022,0.09844455725073553,0.48473188465377437,2.0180924161197376,Jaz
-0.9923076923076923,0.09295300147928998,-1.602,-0.257,0.06725,0.06043964903846153,-0.367,0.708,-0.02733653846153846,0.10969855020340234,-0.695,0.881,1.076169830309765,0.09489410210028204,0.552218253953996,1.799176200376161,Jaz
-1.0134423076923076,0.06908693897929052,-1.674,-0.584,0.05063461538461538,0.03561486649408284,-0.364,0.6,-0.028423076923076933,0.09604503254437871,-0.648,1.007,1.0715634477876237,0.08293566198088542,0.6202039986972028,1.8588743905923284,Jaz
-0.9649326923076924,0.07250908200813588,-1.791,-0.247,0.011413461538461537,0.051546261741863914,-0.621,0.827,-0.08696153846153847,0.054181171597633124,-0.692,0.511,1.0238406338060426,0.06877454887533285,0.6029195634576805,1.8504923669121145,Jaz
-1.0375096153846155,0.11118746144600533,-2.139,-0.082,-0.02989423076923077,0.07006092150517748,-0.81,0.596,-0.0784423076923077,0.06216624667159765,-0.743,0.657,1.1078734615246706,0.09950408555703683,0.5433617579476863,2.1898408617979523,Jaz
-1.0119423076923078,0.02938740051775124,-1.427,-0.667,0.010240384615384613,0.06577595183062128,-0.714,0.821,-0.09399038461538461,0.054422932599852085,-0.681,0.446,1.0730668690729102,0.03108007142113811,0.7384510816567337,1.564123076998738,Jaz
-0.9740865384615385,0.09071123289571015,-2.025,0.028,0.04792307692307692,0.034584282544378696,-0.602,0.353,-0.07170192307692308,0.04136138230399408,-0.67,0.39,1.0264502391388106,0.06933917580264781,0.44596636644482507,2.049153239755387,Jaz
-0.9777307692307692,0.08107215828402359,-1.616,-0.231,0.053711538461538456,0.04989662832840236,-0.544,0.615,-0.05278846153846154,0.08781364755917159,-0.597,0.968,1.0439641028330822,0.09055039430360967,0.5150009708728713,1.861382819303971,Jaz
-0.9988076923076924,0.07090594378698167,-1.546,-0.306,0.039942307692307694,0.05236447744082841,-0.562,0.696,-0.047740384615384615,0.07640319221523668,-0.599,0.921,1.0595141991951151,0.07859461362701059,0.4949636350278675,1.6293919111128543,Jaz
-1.004423076923077,0.09119053254437803,-2.01,-0.275,0.013846153846153845,0.08157045710059171,-1.161,0.755,-0.042644230769230775,0.07465663304363904,-0.549,0.78,1.0751406059782918,0.10236626391509307,0.5255730206165456,2.114957446380423,Jaz
-1.0369807692307693,0.09546288424556204,-2.12,-0.483,0.06660576923076923,0.037894084966715987,-0.345,0.721,-0.006846153846153844,0.07155411094674553,-0.544,1.021,1.0828855354684899,0.11208231130389112,0.48411878707606465,2.2006549025233375,Jaz
-0.9502788461538463,0.06766558570636094,-1.573,-0.162,0.024278846153846158,0.07263927801405325,-0.923,1.032,-0.08732692307692308,0.041950085428994054,-0.61,0.705,1.0161921715855664,0.060853758869749086,0.5248799862825787,1.5994133299432014,Jaz
-1.0276057692307694,0.09518741188979263,-1.891,-0.179,0.02349038461538462,0.05150899990754437,-0.643,0.65,-0.09379807692307691,0.06761998807322486,-0.618,0.889,1.092045484637762,0.08707655371304468,0.5508774818414708,1.9352369363982282,Jaz
-1.0023461538461538,0.10250676479289988,-2.027,-0.152,0.06181730769230769,0.0609273031619822,-0.415,0.631,-0.03889423076923077,0.07281555612056215,-0.611,0.73,1.0678423487621203,0.10599429511327485,0.37491465695541965,2.0837833380656448,Jaz
-0.94925,0.0969428605769228,-1.787,-0.024,0.048961538461538466,0.06017247928994083,-0.662,0.573,0.01714423076923077,0.07700712342825447,-0.669,0.841,1.0228100205317383,0.09174884459217325,0.5658179919373367,1.8406221774171905,Jaz
-0.978403846153846,0.09419652921597643,-1.747,-0.116,0.06976923076923078,0.06484365828402362,-0.574,0.659,-0.06389423076923077,0.1070200561205622,-0.729,0.934,1.0587769730196686,0.11127586948023094,0.43270775357046704,1.8167878247060112,Jaz
-0.9638557692307692,0.0970836426590237,-1.636,-0.355,0.06973076923076924,0.06440700443786981,-0.428,0.62,-0.003951923076923075,0.0912674496116864,-0.613,0.83,1.0407901901698664,0.10340981850771191,0.6218183014353952,1.7448266389529936,Jaz
-1.0159903846153846,0.1032662402921598,-1.896,-0.471,0.03686538461538461,0.056010712647929,-0.711,0.651,-0.03393269230769231,0.09104710123890526,-0.539,1.018,1.0828531537147947,0.11250004748992293,0.5093427137007066,1.9166601159308345,Jaz
-1.0136442307692308,0.10158776765902311,-1.7,-0.269,0.05078846153846154,0.051670109097633136,-0.704,0.481,-0.04703846153846154,0.11002388313609467,-0.528,1.024,1.0860084718698668,0.11613407018072297,0.5072681736517677,1.9261144825788523,Jaz
-1.0158076923076924,0.09274130917159784,-1.672,-0.512,0.0946826923076923,0.04874829354659762,-0.304,0.639,0.0060865384615384635,0.0986566944341716,-0.687,0.88,1.0847219351271615,0.10439174653090921,0.5585320044545344,1.7775893789061634,Jaz
-0.9711634615384616,0.10670379058801793,-1.712,-0.036,0.026182692307692303,0.05057203393121302,-0.547,0.52,-0.032192307692307694,0.09107771301775147,-0.559,0.923,1.0426156679688203,0.10618645352131484,0.4092260988744486,1.8153305484126023,Jaz
-0.9870576923076922,0.09812449667159728,-1.727,-0.196,-0.0048557692307692295,0.06227048881286981,-0.678,0.863,-0.11483653846153846,0.035859329049556236,-0.616,0.612,1.0440761205120617,0.09365326611494429,0.4962549747861476,1.939180754854998,Jaz
-1.0387115384615384,0.07843395525147923,-1.687,-0.379,0.02972115384615385,0.043924681860207114,-0.502,0.433,-0.04319230769230769,0.09993002071005916,-0.521,1.117,1.098951208499983,0.09626548172104221,0.5178831914630943,1.9597905500333446,Jaz
-1.0308365384615386,0.1129735405880179,-1.87,-0.284,0.05050961538461539,0.06226651913831362,-0.743,0.56,-0.048682692307692316,0.1073440243158284,-0.651,1.144,1.1065368670836393,0.12570544063087796,0.3501785258978626,1.9996252148840292,Jaz
-0.9866250000000001,0.10197090745192283,-1.855,-0.228,0.03790384615384616,0.037913029215976356,-0.458,0.501,0.001240384615384611,0.08276804798446749,-0.611,0.94,1.041722879177561,0.11233255838262757,0.47203495633268516,1.9205402885646528,Jaz
-0.9723365384615383,0.1207313002034025,-2.704,-0.105,0.036990384615384626,0.05420783644600589,-0.449,1.086,-0.10316346153846154,0.09484817520340239,-0.791,0.867,1.0491370968030416,0.1265479963424545,0.4345710528785828,2.7453642745544715,Jaz
-0.9455961538461538,0.06799974075443771,-1.827,-0.304,0.1348653846153846,0.08268138572485208,-0.344,0.948,0.056249999999999994,0.07970241826923073,-0.442,0.769,1.0329671453714044,0.07886724196786754,0.5129532142408312,1.8831255932624356,Jaz
-0.9925673076923077,0.10030947623890529,-1.877,-0.328,0.06145192307692308,0.048942189996301774,-0.778,0.511,-0.01986538461538462,0.09478898187869822,-0.502,0.943,1.0592908175126583,0.11130444470259504,0.46160047660287357,1.903766267166219,Jaz
-0.9902596153846154,0.07957661529215976,-1.686,-0.434,0.04888461538461538,0.02675004437869822,-0.309,0.463,-0.011999999999999993,0.07889142307692307,-0.584,0.966,1.0375076670050094,0.09194373513659215,0.5044006344167302,1.9178751262790807,Jaz
-0.9878557692307692,0.09574041188979276,-1.864,-0.198,0.00906730769230769,0.03628162046967457,-0.655,0.448,-0.08423076923076925,0.05388427366863904,-0.634,0.55,1.037776213817101,0.09196289542005798,0.517914085539291,1.8884906671731265,Jaz
-1.0207019230769232,0.08961111307322445,-1.792,-0.203,0.01201923076923077,0.06639717270710055,-0.874,0.706,-0.08768269230769231,0.0786456781619823,-0.637,0.837,1.0922934685722103,0.09121407466833586,0.4738322487969767,1.8341559366640559,Jaz
-1.0194807692307692,0.12822490347633098,-2.525,-0.186,0.05725000000000001,0.06266076442307691,-0.785,0.59,-0.0316923076923077,0.09634865532544377,-0.691,1.008,1.0940280886257177,0.1339598682210359,0.3872157021609532,2.571528339334412,Jaz
-0.9965288461538461,0.0976008260909762,-2.257,-0.369,0.01660576923076923,0.07629829650517748,-0.819,0.889,-0.018759615384615385,0.07893520183062133,-0.541,0.862,1.0682739256391582,0.10532256018411723,0.5684021463717392,2.427112275936159,Jaz
-0.9764903846153847,0.06272126913831333,-1.968,-0.263,0.029519230769230773,0.05783784578402365,-0.534,0.772,-0.0651826923076923,0.07432699546967456,-0.616,0.928,1.042261941090378,0.06722979615451785,0.48247797877208864,1.9999312488183187,Jaz
-0.9617403846153846,0.1259660383690825,-2.36,-0.231,0.04073076923076924,0.056556889053254414,-0.699,0.692,-0.05497115384615385,0.10269327801405323,-0.595,0.986,1.0371252364920769,0.13921283998510003,0.3774784762075846,2.4201307815901187,Jaz
-1.0016538461538462,0.11111426479289888,-2.055,-0.398,0.03399038461538461,0.07511318259985209,-0.75,0.638,-0.02010576923076923,0.07840409458210064,-0.592,0.93,1.071297643798878,0.12182291608328066,0.47800836812758835,2.1606688779172063,Jaz
-1.0112596153846154,0.09705386529215887,-2.205,-0.324,0.017557692307692312,0.10048830436390531,-1.018,0.88,-0.05049038461538461,0.06898309606139051,-0.992,0.73,1.094715900677832,0.09362592372620027,0.5800560317762413,2.271095550609881,Jaz
-1.0219326923076921,0.06801773585429038,-1.761,-0.659,0.05309615384615385,0.053023298446745575,-0.847,0.534,-0.030596153846153846,0.058562106139053244,-0.421,0.705,1.074665081919343,0.07279985593406102,0.6712898032891607,1.807322052098076,Jaz
-0.9873846153846153,0.06238371745562088,-1.732,-0.259,-0.006826923076923077,0.04710698927514794,-0.632,0.538,-0.08210576923076925,0.04086809458210059,-0.726,0.536,1.0370405367361983,0.056622069396666364,0.39002179426283345,1.7415820394112933,Jaz
-1.0108846153846154,0.09836375591715973,-1.969,-0.256,0.03461538461538462,0.04854731360946745,-0.71,0.675,-0.07488461538461538,0.05494165976331364,-0.681,0.657,1.0668000977569845,0.09248391681030355,0.3888367266604326,1.9910012556500312,Jaz
-1.0339326923076924,0.09124594739275071,-1.854,-0.275,0.06747115384615385,0.07455984532174556,-0.747,0.65,-0.03490384615384616,0.07883100998520709,-0.532,0.987,1.1031565093120663,0.10246996596241642,0.3411832352270551,1.9169603543109597,Jaz
-0.9893173076923077,0.138362774315828,-2.315,-0.278,0.059000000000000004,0.055899115384615394,-0.623,0.782,0.019250000000000003,0.05759095673076923,-0.491,0.785,1.0417051366868675,0.14930355243096405,0.38634440593853564,2.399457230291884,Jaz
-0.9462499999999999,0.08340822596153841,-2.006,-0.224,0.04291346153846154,0.04010319443417158,-0.626,0.414,-0.05948076923076923,0.0692934996301775,-0.731,0.871,1.004353274522446,0.08484800957142435,0.4487816841182358,2.015073447792908,Jaz
-1.0186153846153847,0.0893198713017751,-1.936,-0.376,0.036125000000000004,0.059867417067307686,-0.691,0.569,-0.02589423076923077,0.06173955612056214,-0.577,0.67,1.0766455378090374,0.09131405899281164,0.5421540371518043,2.012998012915065,Jaz
-1.0200576923076923,0.09663049667159762,-1.677,-0.234,0.029144230769230766,0.05930281573594674,-0.599,0.798,-0.04591346153846154,0.08142154058801776,-0.565,0.851,1.0883430238489535,0.09633944320854737,0.49839943820193056,1.686095489585332,Jaz
-0.9858173076923078,0.051247360854289825,-1.575,-0.534,0.09437500000000001,0.02609109975961537,-0.372,0.555,-0.029663461538461538,0.05588118481878697,-0.647,0.528,1.0299884628708103,0.05396573750687206,0.6060800277191124,1.6422953449364701,Jaz
-1.1311634615384616,0.10156125212647948,-2.292,-0.201,-0.028221153846153847,0.04017805686020709,-0.556,0.478,0.05214423076923077,0.04859360419748522,-0.469,0.877,1.1706789528539023,0.10288993357565945,0.4695977001647261,2.2978790220549032,Jaz
-0.8848846153846153,0.24608387130177523,-1.964,-0.022,0.194,0.07084053846153848,-0.262,1.576,0.2619230769230769,0.09029249408284026,-0.093,2.106,1.0253708772078076,0.24509194878947582,0.3732425484855659,3.063317156286629,Jaz
-0.8951442307692308,0.2014025657359465,-2.131,0.029,0.15273076923076923,0.07817885059171603,-0.805,0.984,0.20808653846153843,0.09529602135724857,-0.253,1.769,1.025979383367439,0.19015363182804612,0.4043772990661073,2.5148093367092463,Jaz
-0.8737211538461539,0.13387218186020688,-1.682,-0.135,0.15050000000000002,0.08820773076923075,-0.958,0.875,0.1835480769230769,0.07515799768860953,-0.446,1.267,0.9930155516834515,0.13088682565327192,0.3601069285642807,2.043747048927533,Jaz
-0.9734711538461538,0.22019976839866884,-2.487,0.106,0.0974326923076923,0.055648880085059166,-0.776,0.476,0.016644230769230765,0.14620069073594671,-0.932,1.226,1.0728919651434945,0.22836841766899219,0.3560744304215061,2.5350317552251687,Jaz
-0.9245,0.18216924999999973,-1.806,-0.048,0.20157692307692307,0.09382799408284019,-0.581,1.167,0.14554807692307695,0.10840672845784023,-0.613,1.816,1.070071477276574,0.15586875467297667,0.49750276381141845,2.511653041325573,Jaz
-0.9386826923076923,0.2320530820081358,-2.167,-0.053,0.18131730769230772,0.058527466623520735,-0.517,1.014,0.1879423076923077,0.08871913128698225,-0.366,1.642,1.0539840713966397,0.21774073108831637,0.33478649913041597,2.4631983273784512,Jaz
-0.9316923076923076,0.23424311686390575,-1.941,0.068,0.17284615384615384,0.09930059171597636,-0.684,1.178,0.19616346153846156,0.13207729058801781,-0.445,2.071,1.082770307682249,0.22963591272476425,0.37122634604779875,2.529632582016606,Jaz
-0.9691923076923076,0.16747923224852057,-1.822,-0.212,0.12307692307692308,0.06805245562130177,-0.392,0.94,0.17238461538461536,0.11506792899408283,-0.834,1.357,1.0782778994802487,0.1721145022616941,0.41299878934447254,2.0733750263760777,Jaz
-0.9626730769230769,0.05567985465976355,-1.546,-0.48,0.030701923076923078,0.04832997845784023,-0.499,0.529,-0.0019903846153846135,0.0424488172152367,-0.727,0.684,1.0077646911542097,0.058555000339783225,0.5145376565422592,1.5994952328781726,Jaz
-1.0273461538461537,0.1082934571005918,-1.852,-0.146,0.04986538461538462,0.06270378957100586,-0.446,0.693,-0.04746153846153846,0.0943250177514793,-0.727,1.039,1.098611550236638,0.11855420014818963,0.44357412007465,1.9856915671876132,Jaz
-1.023278846153846,0.09689066262943835,-1.728,-0.315,0.062019230769230764,0.057685884245562126,-0.605,0.585,-0.009403846153846155,0.09643316383136101,-0.581,1.022,1.0910974520013936,0.11155047523606587,0.49769870403689015,2.0411244450057424,Jaz
-0.9947307692307692,0.12390736982248529,-1.766,-0.23,0.05339423076923076,0.07339731573594677,-0.679,0.733,-0.00643269230769231,0.12075684162352064,-0.615,1.208,1.0746610057899462,0.1555468764806951,0.4790845436872285,2.211109676158105,Jaz
-0.9828269230769231,0.10137031619822434,-1.773,-0.452,0.060548076923076906,0.06785855538091717,-0.744,0.76,-0.01547115384615384,0.09024344147559174,-0.555,1.118,1.0521288390009362,0.1223514061425417,0.4868624035597737,2.1040603603509096,Jaz
-0.9591346153846154,0.09180180880177569,-1.895,-0.439,0.05793269230769231,0.0663281397004438,-0.666,0.635,-0.05256730769230769,0.12050251470044372,-0.545,1.382,1.0391317301945644,0.12489643961054342,0.5168104101118708,2.2555728762334417,Jaz
-0.9869038461538462,0.12186812536982305,-1.86,-0.14,0.04186538461538462,0.06126334726331363,-0.709,0.558,-0.03281730769230769,0.10182120700813609,-0.563,1.205,1.0601683045768608,0.13780473327831722,0.43664401976896466,2.129732847096086,Jaz
-1.0102403846153847,0.11388966336908313,-1.82,-0.341,0.07224038461538461,0.03991993259985209,-0.353,0.684,-0.017394230769230766,0.0934581618897929,-0.554,0.876,1.070753256073139,0.12686208960877177,0.46204112371086625,1.853358033408548,Jaz
-0.9909807692307692,0.16829082655325434,-2.566,-0.072,0.06375961538461537,0.07452074029215974,-0.375,0.819,-0.03172115384615384,0.11659943186020715,-0.729,0.948,1.0855563108795678,0.16809289975569675,0.39076591458314275,2.5676255568131423,Jaz
-0.9926153846153846,0.08491817899408238,-1.698,-0.424,0.07136538461538462,0.04357857803254437,-0.434,0.575,0.014846153846153846,0.11699334171597632,-0.841,0.971,1.0635430938987824,0.10496491434328226,0.5120712841001729,1.8139674749013555,Jaz
-0.9787692307692306,0.11818538905325415,-1.871,0.033,0.00973076923076923,0.051565581360946744,-0.753,0.805,-0.08211538461538462,0.056054005917159755,-1.022,0.611,1.0416112247684575,0.10567786412866176,0.4410770907675891,2.126496414292768,Jaz
-1.0423461538461538,0.09254357248520706,-1.799,-0.18,0.03177884615384615,0.06899217224482244,-0.847,0.702,-0.04482692307692307,0.09115454696745556,-0.512,0.955,1.1124713435822122,0.10460265393915691,0.3639038334505422,1.9179184028524257,Jaz
-1.017048076923077,0.11473985345784055,-1.897,-0.272,0.0537403846153846,0.0700292691383136,-0.935,0.544,-0.021673076923076923,0.09425954696745559,-0.663,1.081,1.0915584055969967,0.12527345870900386,0.4595443395364586,1.995155633027158,Jaz
-0.9877884615384616,0.13579764755917179,-1.806,-0.162,0.061134615384615384,0.0782578857248521,-0.879,0.654,0.0033365384615384654,0.10688076174186387,-0.607,1.266,1.066090557335884,0.16386183702080248,0.26818090908936826,2.208992077849081,Jaz
-0.959875,0.089287070913462,-1.793,-0.428,0.0595576923076923,0.06183634282544379,-0.663,0.602,-0.004759615384615388,0.101511009522929,-0.483,1.078,1.0294306648749405,0.1178367177535995,0.4520055309396114,2.1455789428496916,Jaz
-0.9789711538461537,0.08185212416789922,-1.71,-0.458,0.05647115384615384,0.07333324916789939,-0.754,0.58,-0.03936538461538462,0.09439046264792897,-0.507,1.07,1.0525840736819545,0.10476574860033305,0.557294356691327,1.975767192763358,Jaz
-1.0114807692307692,0.08299028809171571,-1.732,-0.436,0.03543269230769231,0.06627605316198222,-0.665,0.674,-0.030807692307692307,0.06982519378698228,-0.593,0.846,1.0734362940423563,0.09212399378645819,0.5627965884758008,1.7713489210203617,Jaz
-1.0127788461538463,0.06967971070636048,-1.814,-0.589,-0.006240384615384619,0.0756173172152367,-0.908,0.74,-0.051769230769230776,0.06192667751479288,-0.601,0.818,1.0722663128689325,0.08590864659415631,0.6230585847253852,2.018811036228998,Jaz
-1.0086634615384615,0.02652518481878663,-1.493,-0.518,-0.015528846153846155,0.03303997993713018,-0.414,0.362,-0.03159615384615386,0.031205625369822486,-0.402,0.428,1.040393186675434,0.02699424788856697,0.5387624708533437,1.5366440706943167,Jaz
-0.996548076923077,0.08426217076553222,-1.983,-0.312,0.08366346153846155,0.04508943481878699,-0.488,0.637,-0.12241346153846153,0.03035649251109467,-0.61,0.253,1.0442659898114148,0.0843093406001092,0.5676345655437133,2.058163744700601,Jaz
-1.0432980769230769,0.07850601691937875,-2.035,-0.18,0.04374038461538461,0.03168623067677515,-0.396,0.428,-0.04973076923076924,0.0584305621301775,-0.585,0.528,1.0906097393297567,0.072050454171388,0.42634023971471424,2.0504999390392578,Jaz
-0.9803076923076923,0.08098267455621289,-1.634,-0.495,0.04751923076923077,0.04908594193786985,-0.393,0.642,0.021644230769230763,0.0814407676590237,-0.52,1.03,1.038410651652192,0.09694242430450095,0.5320582674858083,1.9531912348769127,Jaz
-0.9556250000000001,0.08492817668269248,-1.749,-0.234,0.05552884615384616,0.05290613378328401,-0.719,0.766,-0.04215384615384616,0.11647193786982249,-0.581,1.172,1.0297220058553316,0.112058379118811,0.565669514822922,2.1074161905043813,Jaz
-0.9920576923076924,0.11044126590236691,-1.697,-0.112,0.06450961538461539,0.05078621144600592,-0.826,0.528,-0.021115384615384612,0.11354010207100593,-0.682,1.18,1.0685843688682015,0.12168084084131658,0.5303065151400651,2.1035897889084745,Jaz
-0.9997596153846153,0.11823627875369824,-1.832,-0.162,0.05808653846153847,0.03417227135724853,-0.371,0.543,-0.03428846153846154,0.1138563014053254,-0.703,1.231,1.072550030059266,0.11997031763525201,0.5709859893202284,2.1683413015482595,Jaz
-0.9918653846153845,0.09075965495562144,-1.615,-0.253,0.06583653846153846,0.02657671366494082,-0.359,0.481,-0.04066346153846153,0.07942231943417159,-0.594,0.918,1.0441106941800782,0.09637645445264131,0.5930598620712753,1.8318771792890483,Jaz
-0.9985576923076924,0.05897376590236636,-1.716,-0.65,-0.00019230769230769355,0.029685578402366866,-0.34,0.432,-0.03649999999999999,0.06250244230769231,-0.462,0.946,1.0373670337612246,0.07348117572697688,0.6713814117176615,1.8648978524305293,Jaz
-1.022971153846154,0.07246943186020727,-1.952,-0.433,-0.020105769230769233,0.053007152274408297,-0.697,0.535,-0.08779807692307692,0.03775219961168637,-0.539,0.83,1.070390652490939,0.07207536067540721,0.5744318932649892,2.0205707114575326,Jaz
-1.0394038461538462,0.08687004844674506,-1.718,-0.075,0.03363461538461539,0.06195275110946742,-0.667,0.6,-0.029221153846153845,0.08379096070636094,-0.933,0.894,1.11088826116536,0.08088655005115686,0.44487975903607935,1.7824651469243376,Jaz
-1.0012692307692308,0.09085033136094656,-1.921,-0.465,0.058634615384615375,0.07790128957100592,-0.696,0.986,-0.02444230769230769,0.08281403513313614,-0.883,0.905,1.067920617497553,0.11768672780056799,0.4813927710300603,2.179871097106432,Jaz
-0.9427307692307692,0.06887142751479336,-1.981,-0.174,0.038432692307692314,0.062224860854289965,-0.648,0.526,-0.06006730769230769,0.06498573585428996,-0.634,0.752,1.010076009539925,0.06965493572113202,0.32686541572947114,2.0014437289117075,Jaz
-1.007576923076923,0.09042580177514847,-1.687,-0.418,0.03492307692307692,0.06368053254437872,-0.688,0.608,-0.022365384615384617,0.0957951549556213,-0.462,1.15,1.0748747864891637,0.11147677029295133,0.5394228397092581,2.0541966799700555,Jaz
-0.9940673076923077,0.08924835123890473,-1.679,-0.437,0.05800961538461538,0.07793904798446746,-0.633,0.7,-0.03596153846153846,0.09018090236686391,-0.554,0.971,1.06995654426512,0.10538945492270368,0.5730497360613649,1.8380386285385844,Jaz
-0.9997884615384615,0.11462337832840208,-1.849,-0.119,0.07627884615384616,0.042975681860207116,-0.39,0.552,-0.019682692307692314,0.09361004354659763,-0.602,1.058,1.0651247383232438,0.12250123411953373,0.5047217054971977,1.9888866232141036,Jaz
-0.9880865384615384,0.06511065597263321,-1.725,-0.433,0.022086538461538463,0.045729002126479276,-0.696,0.462,-0.05173076923076924,0.06207269674556211,-0.542,0.863,1.036631831582968,0.07778569574894068,0.47964257525786846,1.7741572647316248,Jaz
-1.0025576923076922,0.10207415051775115,-1.756,-0.098,0.01705769230769231,0.03766515051775151,-0.546,0.525,-0.07995192307692309,0.06909893038091716,-0.679,1.041,1.0609226958016753,0.09508646622521377,0.5124275558554594,1.8302658276873336,Jaz
-1.0405384615384616,0.08261813313609445,-1.866,-0.452,0.023875000000000004,0.10398374399038458,-0.885,0.865,-0.0010769230769230758,0.11433957100591711,-0.842,1.11,1.1355009692123388,0.0948704623793779,0.6126189680380456,1.928820883337797,Jaz
-1.0221826923076922,0.06653645700813615,-1.707,-0.354,0.11260576923076922,0.0466083541974852,-0.422,0.695,-0.04695192307692308,0.07480983422707096,-0.749,0.671,1.0871828095981586,0.06573018274502318,0.48782476361906846,1.7600471584591137,Jaz
-0.9763653846153846,0.21082075110946774,-3.368,0.093,0.036173076923076926,0.06428085465976334,-0.411,1.07,-0.041567307692307695,0.08217836085428992,-1.167,0.671,1.0565991468614944,0.19720390631310036,0.23095670589961229,3.3843062804657618,Jaz
-0.9132788461538461,0.052225797244823347,-1.603,-0.453,0.09607692307692307,0.07161016715976329,-0.675,0.689,0.031413461538461536,0.12234720404955621,-0.665,1.132,1.0068632023702584,0.07670549171270813,0.6086657539241058,1.9670429583514437,Jaz
-0.9919134615384615,0.10047579058801803,-1.819,-0.311,0.14091346153846154,0.06870300212647933,-0.788,0.66,0.006336538461538464,0.08506947328032545,-0.636,0.718,1.074151837414873,0.10423516671671296,0.5770762514607579,1.8441583446114382,Jaz
-0.9917596153846154,0.08779331721523687,-1.798,-0.43,0.05924038461538461,0.05254539413831362,-0.529,0.633,-0.029663461538461548,0.08471389635724852,-0.548,0.96,1.0527815597513484,0.10468007398597967,0.5356995426542756,1.856604696751573,Jaz
-1.010875,0.1023909362980766,-1.836,-0.304,0.07415384615384615,0.04598564940828402,-0.409,0.688,-0.008221153846153849,0.08806374916789939,-0.484,1.132,1.0667266562388134,0.1259692216387911,0.414827675065201,2.2026095886470665,Jaz
-0.9730096153846154,0.08616875952292802,-1.879,-0.198,0.022884615384615385,0.039653198224852054,-0.621,0.563,-0.11573076923076925,0.03706496597633137,-0.65,0.249,1.0214764184140166,0.08013787854715004,0.4418812057555741,1.9227506338576514,Jaz
-1.0525384615384614,0.09055978698224854,-1.752,-0.155,0.04079807692307692,0.0759522573039941,-0.742,0.827,-0.03525961538461539,0.09357907683062129,-0.51,0.995,1.1298717816938593,0.09422581462425117,0.5309190145398825,1.856117183800635,Jaz
-1.0204615384615383,0.1044239023668645,-1.668,-0.208,0.06770192307692308,0.0724399399963018,-0.74,0.684,-0.007009615384615386,0.09213487490754432,-0.524,0.956,1.095486570496124,0.11488232770879336,0.43742542221503317,1.874498866364021,Jaz
-0.9547788461538461,0.08510955686020749,-1.705,-0.303,0.03597115384615384,0.051028066475591737,-0.63,0.659,-0.02651923076923077,0.10460159578402366,-0.569,1.325,1.0220139679474947,0.10982650701252461,0.4668104540388957,2.1749137913949603,Jaz
-0.9465961538461538,0.10533224075443759,-2.38,-0.331,0.08075,0.0368808605769231,-0.452,0.648,-0.04185576923076923,0.10943360419748521,-0.665,0.846,1.0211012375176005,0.11331571466310186,0.5701938266940462,2.3949832984803883,Jaz
-1.0015096153846155,0.1403203845229284,-1.999,0.003,0.06754807692307692,0.05500342076553252,-0.524,0.74,-0.010865384615384619,0.1025437895710059,-0.677,0.896,1.0833118261608559,0.13200539114618492,0.47051248655056965,2.039512932050199,Jaz
-0.9835961538461538,0.1348988176775151,-1.894,-0.175,0.08308653846153848,0.051446559818786965,-0.66,0.606,-0.027326923076923082,0.11353347004437869,-0.622,0.818,1.0689490250067093,0.13233835693720564,0.5319642845154174,1.9221357912488908,Jaz
-0.9987307692307692,0.05197083136094682,-1.584,-0.574,0.03892307692307692,0.036695128698224846,-0.499,0.467,0.0024326923076923045,0.07965751470044377,-0.605,0.916,1.0484794737271217,0.06799834124982018,0.5987628913017239,1.803273689709912,Jaz
-0.9955096153846154,0.08201303836908291,-1.853,-0.381,0.03691346153846154,0.06589473289571006,-0.639,0.661,-0.11127884615384616,0.022731701090976324,-0.462,0.325,1.0462644967338233,0.08075505479739631,0.5256358054775189,1.876968300211807,Jaz
-1.0445096153846154,0.12997269221523666,-2.154,-0.034,0.04509615384615385,0.061847702292899445,-0.664,0.696,-0.026346153846153846,0.09872128402366857,-0.702,1.013,1.119550454890398,0.13087657703162558,0.30923292192132457,2.328572094653717,Jaz
-0.9797884615384616,0.11253751294378689,-2.023,-0.426,0.07653846153846154,0.08814057544378698,-0.963,0.644,0.0023173076923076953,0.0866139281619823,-0.721,1.116,1.0606955078095877,0.12806599163563792,0.5399018429307313,2.053082316907922,Jaz
-0.9392596153846153,0.07514509606139153,-1.954,-0.376,0.0675,0.0605763653846154,-0.757,0.518,-0.05121153846153846,0.10352180140532546,-0.58,1.16,1.014147696221412,0.10013520986418745,0.5409796669007071,2.0319635823508255,Jaz
-0.988576923076923,0.10106470562130143,-1.656,-0.308,0.057192307692307695,0.05160278994082841,-0.558,0.533,-0.001971153846153847,0.09616629724482247,-0.56,1.041,1.05528851771996,0.11575911552225593,0.49893987613739593,1.952514788676388,Jaz
-1.0019615384615386,0.09805346005917137,-1.805,-0.287,0.055211538461538465,0.06905966678994084,-0.75,0.635,-0.023067307692307693,0.09880492816198229,-0.627,1.006,1.079289249433013,0.10856011028909252,0.5108306960236434,1.8220411630915478,Jaz
-0.9057788461538461,0.10905244147559168,-1.573,-0.331,0.03657692307692308,0.028474782544378702,-0.32,0.648,-0.04211538461538462,0.04670129437869823,-0.622,0.432,0.9462473156912701,0.11239143100860427,0.4083882956207242,1.6061273299461658,Jaz
-0.9832692307692308,0.379539042899408,-3.603,0.008,0.15136538461538462,0.047050193417159755,-0.388,0.92,0.195125,0.11640495552884622,-0.593,2.047,1.0825507862850068,0.39888161242140496,0.22034745290109436,3.9319240837025324,Jaz
-1.009182692307692,0.4033500916235211,-3.127,0.069,0.104875,0.08483545552884611,-0.891,1.119,0.15063461538461537,0.09540730880177513,-0.596,1.049,1.097637060453079,0.4309249989045383,0.07502666192761077,3.3033095525548313,Jaz
-0.981653846153846,0.30606859171597656,-3.538,-0.171,0.12970192307692308,0.05067922845784024,-0.456,0.662,0.16059615384615383,0.13169760613905324,-0.981,1.688,1.0753299953701059,0.3383688145188668,0.1999249859322241,3.9202336665050974,Jaz
-1.0142788461538461,0.04641341262943777,-1.711,-0.45,0.005807692307692309,0.04404228994082841,-0.507,0.314,-0.022807692307692314,0.08028200147928995,-1.215,0.803,1.0683995227441379,0.05857566172317541,0.6839225102305085,1.8836669026130919,Jaz
-0.923576923076923,0.22525105177514848,-2.144,-0.099,0.1513076923076923,0.04967086686390532,-0.381,0.899,0.12139423076923077,0.05715460419748521,-0.593,0.827,1.0031725287612885,0.2163463102309897,0.19708120153885808,2.167403054348683,Jaz
-0.9681057692307692,0.293906325351331,-2.502,-0.061,0.12391346153846154,0.060695194434171595,-0.625,1.054,0.1546346153846154,0.04613450110946744,-0.332,0.715,1.034387471162025,0.3072737710414917,0.11236992480196825,2.5157372676811858,Jaz
-0.9749230769230769,0.2920251863905329,-2.28,-0.163,0.11686538461538462,0.04264127034023668,-0.493,0.586,0.15906730769230767,0.05758027431582843,-0.389,0.936,1.0406856611337634,0.29865501817212037,0.23955375179696103,2.36503234650184,Jaz
-1.0829615384615383,0.30819884467455605,-3.035,-0.469,0.11160576923076923,0.07188102727440832,-0.557,0.954,0.11348076923076923,0.07531263424556213,-0.795,0.906,1.155680150935272,0.31793532142653413,0.4790052191782465,3.111286711314147,Jaz
-0.9885,0.07532013461538456,-1.618,-0.386,0.07477884615384614,0.05741276839866863,-0.475,0.548,0.08057692307692309,0.06361984023668638,-0.345,0.76,1.0511318698899061,0.08069130171713379,0.40532702845973645,1.6868055608160653,Jaz
-0.9627692307692308,0.06944629289940785,-1.551,-0.482,0.05964423076923076,0.058815863812869816,-0.534,0.606,-0.016307692307692304,0.09123490532544373,-0.678,0.98,1.0289308500585148,0.09154633464401596,0.5795903725908498,1.917354948881401,Jaz
-0.9748942307692309,0.1675161715051774,-2.456,0.323,0.05224999999999999,0.07902545673076923,-1.09,0.76,-0.030884615384615382,0.09057008284023674,-0.982,0.753,1.0728593137975848,0.1401872870285441,0.5849538443330379,2.4722026615955253,Jaz
-1.010298076923077,0.06575511307322501,-1.749,-0.509,0.04989423076923077,0.06580028688979288,-0.71,0.652,-0.02734615384615385,0.07969516863905331,-0.655,0.887,1.0773871199114693,0.07442701307963895,0.5425596741373248,1.773530377523881,Jaz
-1.0050961538461538,0.09727412536982194,-1.706,-0.223,0.057384615384615395,0.05799592899408283,-0.729,0.607,-0.02183653846153846,0.10121423289571006,-0.623,1.032,1.0751688244615727,0.11448439313668946,0.3022548593488614,1.9454945386713374,Jaz
-0.9864134615384615,0.05593158866494119,-1.681,-0.606,0.05349038461538462,0.033790326830621276,-0.524,0.358,-0.012048076923076929,0.08307223807322488,-0.603,1.133,1.0379571808807995,0.07145693873490644,0.6489291178549472,1.9476840092787127,Jaz
-0.990153846153846,0.08756259171597669,-1.66,-0.385,0.02284615384615385,0.04323574556213017,-0.465,0.562,-0.10535576923076924,0.034760825351331355,-0.642,0.334,1.032900274157034,0.09070261018478587,0.5435347275013805,1.7253277949421668,Jaz
-1.031451923076923,0.07161870922707125,-1.6,-0.218,0.0795,0.06470467307692308,-0.624,0.802,-0.05534615384615384,0.08571124556213017,-0.572,0.909,1.1057236255630516,0.07268640810246874,0.33664372859151853,1.7326497049317269,Jaz
-1.0126442307692307,0.10216582535133156,-2.028,-0.143,0.042451923076923075,0.04152920922707102,-0.469,0.593,1.9230769230770316e-05,0.09282498039940823,-0.647,0.824,1.0811520352119177,0.09488079598789811,0.44112016503442686,2.0471233475294057,Jaz
-0.9401730769230768,0.08452175850591737,-1.568,-0.179,0.057038461538461545,0.04652059467455623,-0.642,0.536,-0.007298076923076926,0.08510917076553257,-0.547,0.908,1.00398579595351,0.09539610806205823,0.5420876312922109,1.8170927329115594,Jaz
-0.9672307692307692,0.0818333698224849,-1.606,-0.477,0.05295192307692308,0.04681108422707099,-0.501,0.675,-0.035173076923076925,0.09808698927514785,-0.618,1.116,1.0331269168225996,0.09895662950586037,0.528689890200295,1.9348881104601372,Jaz
-1.0131057692307692,0.08308280612056218,-1.612,-0.439,0.07203846153846155,0.05286947928994087,-0.511,0.655,-0.010980769230769231,0.09468332655325445,-0.521,1.086,1.0779771114601,0.10029437601429292,0.4967876810066852,1.837885197720467,Jaz
-0.9856538461538461,0.1239273417159763,-2.364,0.062,0.1191923076923077,0.04672388609467456,-0.365,0.716,0.004846153846153846,0.08606436094674555,-0.616,0.767,1.0640996353661647,0.11015135062897974,0.5696016151662493,2.3727842295497497,Jaz
-0.9772307692307692,0.05230531213017675,-1.648,-0.619,0.03073076923076923,0.044662562130177524,-0.579,0.61,-0.043932692307692305,0.06516642816198223,-0.721,0.626,1.0273669746953529,0.06450583968993384,0.6440970423779323,1.7053647703643935,Jaz
-1.0351346153846153,0.07142171264792951,-1.621,-0.142,0.046259615384615385,0.06285736529215973,-0.771,0.665,-0.024961538461538462,0.06559347928994086,-0.644,0.702,1.1010032719338656,0.06193105480630634,0.5155666785198593,1.7633133584249852,Jaz
-0.9949615384615383,0.08452557544378692,-1.717,-0.299,0.08075,0.06839262980769234,-0.821,0.749,0.0042211538461538484,0.08548446070636094,-0.463,0.947,1.0662975526131633,0.09789903890656282,0.49863212892873243,1.7678713188464823,Jaz
-0.9553076923076923,0.09375015532544384,-1.621,-0.122,0.07576923076923078,0.04395804289940829,-0.713,0.541,-0.030394230769230778,0.08233573881286978,-0.646,0.95,1.0190251060210564,0.10090934291415898,0.48006145439933,1.9374906451387062,Jaz
-0.9839615384615384,0.08066392159763291,-1.657,-0.491,0.07179807692307692,0.07152212268860947,-0.863,0.788,-0.01023076923076923,0.09099435059171601,-0.534,1.094,1.052782459161074,0.10826943022122415,0.5369599612634074,1.9735680885137963,Jaz
-1.0075865384615383,0.08398306943417211,-1.761,-0.461,0.04244230769230769,0.054684381286982234,-0.423,0.597,-0.03361538461538461,0.07898604437869823,-0.543,1.082,1.0710137875260688,0.08874493808291106,0.6117940830050582,1.985090426151917,Jaz
-0.9935288461538462,0.06840559532174528,-1.721,-0.469,0.09582692307692309,0.03735387389053254,-0.322,0.655,-0.029788461538461538,0.09662305140532546,-0.527,1.191,1.0538416684439949,0.08896997823579267,0.6176779095936652,1.992545608010015,Jaz
-0.957923076923077,0.05510370562130129,-1.663,-0.497,0.006769230769230771,0.028926965976331365,-0.559,0.474,-0.07075,0.03724632211538462,-0.658,0.595,0.9931940572860073,0.05751056457175918,0.5720428305642857,1.7124698537492564,Jaz
-1.0024038461538463,0.06705366383136102,-1.738,-0.594,0.08829807692307692,0.06880503615014794,-0.543,0.625,-0.04795192307692308,0.07568221884245564,-0.599,0.967,1.0679558342234623,0.08592066307114576,0.6428289041416853,1.758319936757813,Jaz
-1.0318173076923076,0.07303303393121285,-1.683,-0.15,0.06280769230769231,0.07589890532544379,-0.609,0.657,0.014038461538461536,0.10685326775147927,-0.769,0.838,1.1226006930636707,0.06434173200988846,0.6148503883059684,1.73145343570077,Jaz
-0.9417596153846154,0.09885175952292913,-1.78,0.05,0.03699038461538462,0.04401581721523668,-0.636,0.562,-0.005336538461538461,0.08051968481878699,-0.729,0.9,1.0084133690433748,0.09479767905766678,0.48716834872557147,1.8284485226552045,Jaz
-0.950625,0.07990888822115394,-1.581,-0.336,0.1089326923076923,0.05893044739275148,-0.482,0.76,0.008615384615384617,0.09904217899408288,-0.691,0.96,1.0317486063328327,0.08900477486871927,0.5985933511157637,1.7530216769909037,Jaz
-1.003394230769231,0.08605806573594599,-1.688,-0.327,0.07733653846153846,0.056607415588017754,-0.776,0.546,0.00757692307692308,0.09515676331360946,-0.55,0.945,1.0732669413037825,0.0987586496274997,0.5146833978282184,1.7223036898294097,Jaz
-1.0171346153846155,0.0976850203402364,-1.772,-0.308,0.07363461538461538,0.03851269341715976,-0.315,0.638,0.00016346153846153754,0.07993719443417159,-0.568,0.939,1.0699538853603823,0.11131850050991465,0.5734683949443072,1.8816482136680066,Jaz
-0.9597692307692308,0.08164277366863926,-1.682,-0.035,0.04848076923076923,0.04428217270710058,-0.669,0.484,-0.0760096153846154,0.059769259522929,-0.705,0.652,1.0204312707971306,0.07369905042550684,0.4264246709560787,1.701979435833465,Jaz
-1.0116538461538462,0.060363822485207,-2.024,-0.517,0.02645192307692308,0.048272382303994096,-0.376,0.699,-0.08482692307692306,0.047823335428994064,-0.449,0.736,1.062110847381888,0.05971890364295884,0.6248791883236311,2.027374657038013,Jaz
-1.0168269230769231,0.1102194892751478,-1.7,-0.08,0.06685576923076923,0.06519250804363905,-0.796,0.669,0.012528846153846158,0.09636396070636095,-0.759,0.887,1.0983773999308883,0.10390670270567703,0.5423707219236672,1.8456773824263002,Jaz
-0.9472499999999999,0.06349176442307736,-1.478,-0.384,0.06749038461538462,0.06439890375369822,-0.498,1.023,-0.015932692307692307,0.07900821662352069,-0.678,0.896,1.0151853329993814,0.07838898966293462,0.5730776561688651,1.7522479847327546,Jaz
-0.9574615384615384,0.08225617159763299,-1.679,-0.33,0.08558653846153846,0.051503992511094714,-0.584,0.64,-0.04805769230769231,0.08967099667159761,-0.514,1.081,1.0262629657538658,0.09658268089130995,0.5105340341250522,1.875968549842987,Jaz
-1.0073846153846153,0.09127969822485227,-1.708,-0.196,0.06925961538461539,0.062142288369082845,-0.716,0.552,-0.0012980769230769222,0.09418170922707096,-0.551,1.062,1.082052290958894,0.09638887809214691,0.48526384575816073,1.8209925864758483,Jaz
-0.9814807692307692,0.11015503809171578,-1.744,-0.015,0.08484615384615385,0.03817938017751482,-0.427,0.554,-0.01721153846153846,0.09339064755917163,-0.606,1.045,1.0491396328974718,0.11183070376068094,0.43513446197698474,1.898944180327584,Jaz
-1.04575,0.0991519374999994,-2.256,-0.596,0.014096153846153843,0.04250312536982249,-0.754,0.518,-0.027971153846153844,0.08216362416789941,-1.073,1.06,1.094288251888751,0.12092605831672354,0.5989791315229605,2.257566831790368,Jaz
-1.0053653846153845,0.0967332895710058,-2.135,0.392,-0.029288461538461544,0.1082949167899408,-1.272,0.751,-0.07991346153846154,0.06368819443417158,-1.209,0.636,1.1016837770879424,0.07301278799355249,0.795741792291947,2.149332454507678,Jaz
-1.039173076923077,0.04499200850591656,-1.781,-0.504,0.07025961538461536,0.038782634522928947,-0.498,0.566,-0.04972115384615384,0.048356624167899404,-0.563,0.542,1.0846740671675794,0.042902725706448264,0.7078940598705431,1.872938066247787,Jaz
-0.9798749999999999,0.09551780168269253,-1.807,-0.265,0.05486538461538462,0.04701515495562129,-0.499,0.651,0.038875,0.07031666706730769,-0.443,0.943,1.0348657854477779,0.10657892149416881,0.5179169817644523,1.8398298834403142,Jaz
-0.9320865384615384,0.10757107904955643,-2.076,-0.146,0.07470192307692308,0.04276722845784023,-0.601,0.602,-0.051625,0.10520917668269236,-0.539,1.186,1.0037321364545388,0.12510011555609957,0.4848257418908365,2.1354353186177284,Jaz
-0.9882980769230768,0.09052938230399443,-1.668,-0.251,0.07407692307692308,0.045734571005917136,-0.445,0.596,-0.0007500000000000007,0.09571662980769229,-0.632,0.973,1.052823329692915,0.10576466145432328,0.537018621651056,1.9641127768027986,Jaz
-0.9957884615384616,0.0897547437130174,-1.639,-0.467,0.07885576923076923,0.05966350804363908,-0.704,0.654,-0.005288461538461535,0.08728110909763315,-0.51,0.848,1.0641970234046467,0.1020249165305358,0.5477974078069373,1.8062073524376985,Jaz
-1.0327692307692309,0.08544146597633118,-1.836,-0.56,0.08517307692307693,0.036520950813609475,-0.239,0.598,-0.015365384615384616,0.08412921264792896,-0.601,0.903,1.0870796535172575,0.09845228844726095,0.5773395881108448,1.8807373554008013,Jaz
