dd/mm/yyyy,hh:mm:ss.ms,accX[mg],accY[mg],accZ[mg],gyroX[mdps],gyroY[mdps],gyroZ[mdps],magX[mG],magY[mG],magZ[mG],T[degC],rH[%],Press[hPa],
16/06/2023,19:23:36.003,-974,-89,-102,-34,50,-14,570,57,562,28.799999,47.400002,979.890015
16/06/2023,19:23:36.004,-974,-89,-102,-34,50,-14,570,57,562,28.799999,47.400002,979.890015
16/06/2023,19:23:36.004,-974,-89,-102,-34,50,-14,570,57,562,28.799999,47.400002,979.890015
16/06/2023,19:23:36.005,-974,-89,-102,-34,50,-14,570,57,562,28.799999,47.400002,979.890015
16/06/2023,19:23:36.009,-974,-89,-102,-34,50,-14,570,57,562,28.799999,47.400002,979.890015
16/06/2023,19:23:36.009,-974,-89,-102,-34,50,-14,570,57,562,28.799999,47.400002,979.890015
16/06/2023,19:23:36.010,-974,-89,-102,-34,50,-14,570,57,562,28.799999,47.400002,979.890015
16/06/2023,19:23:36.010,-974,-89,-102,-34,50,-14,570,57,562,28.799999,47.400002,979.890015
16/06/2023,19:23:36.011,-974,-89,-102,-34,50,-14,570,57,562,28.799999,47.400002,979.890015
16/06/2023,19:23:36.011,-974,-89,-102,-34,50,-14,570,57,562,28.799999,47.400002,979.890015
16/06/2023,19:23:36.023,-974,-89,-102,-34,50,-14,570,57,562,28.799999,47.400002,979.890015
16/06/2023,19:23:36.024,-974,-89,-102,-34,50,-14,570,57,562,28.799999,47.400002,979.890015
16/06/2023,19:23:36.024,-974,-89,-102,-34,50,-14,570,57,562,28.799999,47.400002,979.890015
16/06/2023,19:23:36.025,-974,-89,-102,-34,50,-14,570,57,562,28.799999,47.400002,979.890015
16/06/2023,19:23:36.025,-974,-89,-102,-34,50,-14,570,57,562,28.799999,47.400002,979.890015
16/06/2023,19:23:36.026,-974,-89,-102,-34,50,-14,570,57,562,28.799999,47.400002,979.890015
16/06/2023,19:23:36.030,-974,-89,-102,-34,50,-14,570,57,562,28.799999,47.400002,979.890015
16/06/2023,19:23:36.030,-974,-89,-102,-34,50,-14,570,57,562,28.799999,47.400002,979.890015
16/06/2023,19:23:36.031,-974,-89,-102,-34,50,-14,570,57,562,28.799999,47.400002,979.890015
16/06/2023,19:23:36.031,-974,-89,-102,-34,50,-14,570,57,562,28.799999,47.400002,979.890015
16/06/2023,19:23:36.032,-974,-89,-102,-34,50,-14,570,57,562,28.799999,47.400002,979.890015
16/06/2023,19:23:36.036,-974,-89,-102,-34,50,-14,570,57,562,28.799999,47.400002,979.890015
16/06/2023,19:23:36.036,-982,-86,-75,-34,50,-14,570,57,562,28.799999,47.400002,979.890015
16/06/2023,19:23:36.038,-982,-86,-75,-18,51,-8,573,46,556,28.799999,47.400002,979.890015
16/06/2023,19:23:36.048,-980,-91,-77,-4,49,-8,564,57,555,28.799999,47.400002,979.890015
16/06/2023,19:23:36.057,-976,-98,-83,9,49,-7,561,48,553,28.799999,47.400002,979.890015
16/06/2023,19:23:36.066,-975,-100,-90,21,50,-2,553,55,529,28.799999,47.400002,979.890015
16/06/2023,19:23:36.076,-975,-102,-92,28,54,0,544,55,577,28.799999,47.400002,979.890015
16/06/2023,19:23:36.085,-976,-98,-94,27,58,0,544,55,577,28.799999,47.400002,979.890015
16/06/2023,19:23:36.094,-977,-90,-94,17,58,-1,556,36,534,28.799999,47.400002,979.890015
16/06/2023,19:23:36.104,-981,-86,-92,-1,59,-2,579,54,540,28.799999,47.400002,979.890015
16/06/2023,19:23:36.113,-982,-87,-92,-20,61,-4,556,42,547,28.799999,47.400002,979.890015
16/06/2023,19:23:36.123,-981,-85,-92,-36,61,-5,567,48,544,28.799999,47.400002,979.890015
16/06/2023,19:23:36.132,-978,-84,-94,-47,63,-6,556,60,556,28.799999,47.400002,979.890015
16/06/2023,19:23:36.141,-976,-85,-94,-53,65,-6,567,60,562,28.799999,47.400002,979.890015
16/06/2023,19:23:36.151,-979,-86,-95,-53,65,-6,552,54,553,28.799999,47.400002,979.890015
16/06/2023,19:23:36.160,-979,-83,-97,-52,65,-4,576,46,553,28.799999,47.400002,979.890015
16/06/2023,19:23:36.170,-974,-79,-100,-44,65,-3,544,42,547,28.799999,47.400002,979.890015
16/06/2023,19:23:36.178,-973,-77,-104,-32,65,-2,544,42,547,28.799999,47.400002,979.890015
16/06/2023,19:23:36.188,-974,-78,-107,-17,64,-2,573,55,550,28.799999,47.400002,979.890015
16/06/2023,19:23:36.198,-975,-80,-105,-5,64,-2,556,54,559,28.799999,47.400002,979.890015
16/06/2023,19:23:36.207,-979,-81,-105,2,65,-3,568,43,574,28.799999,47.400002,979.890015
16/06/2023,19:23:36.216,-979,-85,-102,7,65,-5,556,45,558,28.799999,47.400002,979.890015
16/06/2023,19:23:36.226,-979,-85,-102,13,66,-5,556,64,558,28.799999,47.400002,979.890015
16/06/2023,19:23:36.235,-975,-90,-99,16,64,-5,544,70,574,28.799999,47.400002,979.890015
16/06/2023,19:23:36.244,-972,-93,-102,15,62,-4,556,55,558,28.799999,47.400002,979.890015
16/06/2023,19:23:36.254,-970,-92,-103,7,60,-4,558,54,573,28.799999,47.400002,979.890015
16/06/2023,19:23:36.263,-969,-89,-102,-7,59,-8,561,61,559,28.799999,47.400002,979.890015
16/06/2023,19:23:36.272,-969,-87,-104,-27,58,-12,561,61,559,28.799999,47.400002,979.890015
16/06/2023,19:23:36.281,-971,-87,-111,-53,60,-16,553,40,556,28.799999,47.400002,979.890015
16/06/2023,19:23:36.291,-971,-91,-120,-70,60,-19,546,37,561,28.799999,47.400002,979.890015
16/06/2023,19:23:36.301,-972,-100,-128,-81,61,-21,559,36,562,28.799999,47.400002,979.890015
16/06/2023,19:23:36.310,-973,-108,-132,-80,61,-22,570,46,570,28.799999,47.400002,979.890015
16/06/2023,19:23:36.319,-973,-111,-134,-72,65,-17,556,46,567,28.799999,47.400002,979.890015
16/06/2023,19:23:36.329,-975,-112,-138,-55,62,-14,553,48,556,28.799999,47.400002,979.890015
16/06/2023,19:23:36.338,-974,-109,-140,-40,57,-11,567,48,574,28.799999,47.400002,979.890015
16/06/2023,19:23:36.348,-975,-102,-143,-30,54,-9,574,46,573,28.799999,47.400002,979.890015
16/06/2023,19:23:36.356,-975,-91,-152,-25,53,-8,574,46,573,28.799999,47.400002,979.890015
16/06/2023,19:23:36.366,-973,-81,-161,-29,51,-10,565,69,573,28.799999,47.400002,979.890015
16/06/2023,19:23:36.376,-971,-70,-166,-41,49,-13,541,52,558,28.799999,47.400002,979.890015
16/06/2023,19:23:36.385,-969,-68,-167,-59,48,-17,538,51,576,28.799999,47.400002,979.890015
16/06/2023,19:23:36.394,-968,-72,-170,-78,51,-19,540,49,582,28.799999,47.400002,979.890015
16/06/2023,19:23:36.404,-969,-76,-172,-92,50,-20,549,49,576,28.799999,47.400002,979.890015
16/06/2023,19:23:36.413,-969,-85,-173,-100,52,-19,549,48,573,28.799999,47.400002,979.890015
16/06/2023,19:23:36.423,-970,-88,-174,-100,59,-16,543,42,585,28.799999,47.400002,979.890015
16/06/2023,19:23:36.432,-974,-88,-173,-89,63,-14,544,40,555,28.799999,47.400002,979.890015
16/06/2023,19:23:36.441,-978,-89,-170,-73,67,-10,550,58,573,28.799999,47.400002,979.890015
16/06/2023,19:23:36.450,-980,-86,-169,-52,72,-7,550,58,573,28.799999,47.400002,979.890015
16/06/2023,19:23:36.459,-981,-80,-167,-37,72,-6,567,42,564,28.799999,47.400002,979.890015
16/06/2023,19:23:36.469,-979,-71,-166,-33,72,-8,546,34,562,28.799999,47.400002,979.890015
16/06/2023,19:23:36.479,-977,-65,-169,-36,72,-11,547,55,582,28.799999,47.400002,979.890015
16/06/2023,19:23:36.488,-975,-59,-169,-41,68,-14,555,52,577,28.799999,47.400002,979.890015
16/06/2023,19:23:36.497,-972,-50,-168,-41,68,-14,555,36,588,28.799999,47.400002,979.890015
16/06/2023,19:23:36.507,-973,-42,-170,-51,63,-18,552,45,579,28.799999,47.400002,979.890015
16/06/2023,19:23:36.516,-978,-38,-169,-58,60,-21,546,49,577,28.799999,47.400002,979.890015
16/06/2023,19:23:36.526,-981,-39,-167,-62,55,-25,553,52,582,28.799999,47.400002,979.890015
16/06/2023,19:23:36.535,-979,-42,-162,-65,49,-29,558,42,583,28.799999,47.400002,979.890015
16/06/2023,19:23:36.547,-979,-42,-162,-69,42,-31,558,42,583,28.799999,47.400002,979.890015
16/06/2023,19:23:36.553,-974,-48,-159,-76,34,-31,547,37,579,28.799999,47.400002,979.890015
16/06/2023,19:23:36.563,-971,-54,-158,-83,26,-32,547,48,576,28.799999,47.400002,979.890015
16/06/2023,19:23:36.572,-974,-58,-153,-86,19,-34,552,33,576,28.799999,47.400002,979.890015
16/06/2023,19:23:36.582,-980,-63,-153,-77,14,-35,544,49,571,28.799999,47.400002,979.890015
16/06/2023,19:23:36.591,-986,-73,-155,-53,10,-35,550,43,585,28.799999,47.400002,979.890015
16/06/2023,19:23:36.601,-982,-85,-155,-24,2,-37,531,39,598,28.799999,47.400002,979.890015
16/06/2023,19:23:36.610,-980,-97,-150,-3,-8,-40,549,48,571,28.799999,47.400002,979.890015
16/06/2023,19:23:36.619,-977,-115,-146,1,-16,-42,549,45,570,28.799999,47.400002,979.890015
16/06/2023,19:23:36.629,-968,-135,-143,-10,-22,-42,553,46,582,28.799999,47.400002,979.890015
16/06/2023,19:23:36.637,-959,-154,-140,-47,-24,-44,553,46,582,28.799999,47.400002,979.890015
16/06/2023,19:23:36.647,-946,-170,-144,-97,-28,-45,553,37,568,28.799999,47.400002,979.890015
16/06/2023,19:23:36.657,-936,-182,-153,-143,-25,-44,549,39,586,28.799999,47.400002,979.890015
16/06/2023,19:23:36.666,-941,-190,-169,-168,-21,-44,534,61,600,28.799999,47.400002,979.890015
16/06/2023,19:23:36.675,-949,-194,-187,-165,-12,-42,529,48,573,28.799999,47.400002,979.890015
16/06/2023,19:23:36.685,-941,-194,-199,-138,-8,-43,546,54,582,28.799999,47.400002,979.890015
16/06/2023,19:23:36.694,-940,-196,-204,-106,0,-45,553,48,570,28.799999,47.400002,979.890015
16/06/2023,19:23:36.704,-947,-198,-202,-76,6,-44,555,46,576,28.799999,47.400002,979.890015
16/06/2023,19:23:36.713,-955,-195,-195,-48,14,-41,553,42,604,28.799999,47.400002,979.890015
16/06/2023,19:23:36.722,-959,-188,-189,-26,20,-40,528,64,577,28.799999,47.400002,979.890015
16/06/2023,19:23:36.731,-955,-185,-183,-15,29,-41,528,64,577,28.799999,47.400002,979.890015
16/06/2023,19:23:36.740,-962,-181,-177,-33,44,-45,547,18,582,28.799999,47.400002,979.890015
16/06/2023,19:23:36.754,-971,-166,-177,-61,65,-45,541,40,594,28.799999,47.400002,979.890015
16/06/2023,19:23:36.760,-964,-144,-168,-54,81,-38,529,52,568,28.799999,47.400002,979.890015
16/06/2023,19:23:36.769,-976,-118,-150,-40,94,-36,538,49,586,28.799999,47.400002,979.890015
16/06/2023,19:23:36.779,-999,-112,-121,-47,99,-26,538,43,580,28.799999,47.400002,979.890015
16/06/2023,19:23:36.788,-973,-109,-92,-28,85,-9,540,54,588,28.799999,47.400002,979.890015
16/06/2023,19:23:36.797,-951,-121,-74,-8,92,-13,531,46,579,28.799999,47.400002,979.890015
16/06/2023,19:23:36.807,-971,-139,-59,-7,115,-12,564,60,585,28.799999,47.400002,979.890015
16/06/2023,19:23:36.816,-985,-136,-56,36,123,-8,549,46,595,28.799999,47.400002,979.890015
16/06/2023,19:23:36.825,-984,-146,-47,107,108,-1,549,46,595,28.799999,47.400002,979.890015
16/06/2023,19:23:36.834,-975,-172,-33,147,92,1,529,45,568,28.799999,47.400002,979.890015
16/06/2023,19:23:36.844,-957,-194,-29,147,92,1,540,51,597,27.299999,47.700001,979.969971
16/06/2023,19:23:36.853,-931,-206,-41,148,76,5,540,51,597,27.299999,47.700001,979.969971
16/06/2023,19:23:36.863,-911,-217,-60,148,59,10,547,40,591,27.299999,47.700001,979.969971
16/06/2023,19:23:36.872,-911,-225,-77,162,50,11,562,52,580,27.299999,47.700001,979.969971
16/06/2023,19:23:36.882,-926,-221,-92,197,44,13,550,64,592,27.299999,47.700001,979.969971
16/06/2023,19:23:36.891,-937,-198,-103,237,54,19,534,54,582,27.299999,47.700001,979.969971
16/06/2023,19:23:36.900,-940,-169,-102,278,71,25,531,46,585,27.299999,47.700001,979.969971
16/06/2023,19:23:36.909,-940,-169,-102,321,91,25,531,46,585,27.299999,47.700001,979.969971
16/06/2023,19:23:36.918,-938,-152,-98,363,106,20,537,42,598,27.299999,47.700001,979.969971
16/06/2023,19:23:36.928,-939,-142,-97,410,111,14,538,60,586,27.299999,47.700001,979.969971
16/06/2023,19:23:36.938,-944,-136,-90,435,112,4,535,60,603,27.299999,47.700001,979.969971
16/06/2023,19:23:36.947,-952,-135,-84,432,106,-5,538,54,583,27.299999,47.700001,979.969971
16/06/2023,19:23:36.957,-955,-135,-86,403,98,-15,523,51,577,27.299999,47.700001,979.969971
16/06/2023,19:23:36.966,-953,-136,-91,362,98,-25,538,52,580,27.299999,47.700001,979.969971
16/06/2023,19:23:36.975,-950,-143,-101,316,100,-33,547,66,585,27.299999,47.700001,979.969971
16/06/2023,19:23:36.985,-949,-155,-118,267,107,-40,541,63,579,27.299999,47.700001,979.969971
16/06/2023,19:23:36.994,-948,-166,-139,224,125,-45,525,52,607,27.299999,47.700001,979.969971
16/06/2023,19:23:37.003,-940,-166,-153,189,143,-49,525,52,607,27.299999,47.700001,979.969971
16/06/2023,19:23:37.013,-935,-159,-163,175,151,-54,540,73,595,27.299999,47.700001,979.969971
16/06/2023,19:23:37.022,-934,-152,-179,205,168,-55,540,73,595,27.299999,47.700001,979.969971
16/06/2023,19:23:37.031,-931,-156,-183,261,185,-58,531,66,600,27.299999,47.700001,979.969971
16/06/2023,19:23:37.041,-933,-172,-180,305,176,-63,535,76,612,27.299999,47.700001,979.969971
16/06/2023,19:23:37.050,-945,-184,-176,352,172,-57,525,85,588,27.299999,47.700001,979.969971
16/06/2023,19:23:37.060,-961,-186,-165,391,147,-52,532,55,583,27.299999,47.700001,979.969971
16/06/2023,19:23:37.069,-969,-185,-164,392,110,-45,526,73,597,27.299999,47.700001,979.969971
16/06/2023,19:23:37.078,-973,-187,-172,365,93,-44,517,78,592,27.299999,47.700001,979.969971
16/06/2023,19:23:37.087,-977,-188,-181,325,73,-43,517,78,592,27.299999,47.700001,979.969971
16/06/2023,19:23:37.096,-988,-186,-196,279,60,-45,538,82,582,27.299999,47.700001,979.969971
16/06/2023,19:23:37.106,-1008,-190,-213,224,62,-51,519,73,595,27.299999,47.700001,979.969971
16/06/2023,19:23:37.116,-1032,-189,-227,175,73,-53,540,70,580,27.299999,47.700001,979.969971
16/06/2023,19:23:37.125,-1062,-181,-241,143,85,-60,525,85,580,27.299999,47.700001,979.969971
16/06/2023,19:23:37.135,-1093,-173,-254,118,106,-78,523,75,616,27.299999,47.700001,979.969971
16/06/2023,19:23:37.144,-1121,-166,-255,99,137,-103,511,81,589,27.299999,47.700001,979.969971
16/06/2023,19:23:37.153,-1123,-166,-236,73,158,-124,531,79,610,27.299999,47.700001,979.969971
16/06/2023,19:23:37.163,-1093,-182,-208,73,158,-124,532,81,592,27.299999,47.700001,979.969971
16/06/2023,19:23:37.172,-1053,-210,-175,32,169,-141,519,91,607,27.299999,47.700001,979.969971
16/06/2023,19:23:37.181,-1017,-242,-128,11,222,-162,519,91,607,27.299999,47.700001,979.969971
16/06/2023,19:23:37.190,-1013,-302,-12,11,205,-162,522,66,607,27.299999,47.700001,979.969971
16/06/2023,19:23:37.200,-1035,-363,70,259,122,-148,525,90,594,27.299999,47.700001,979.969971
16/06/2023,19:23:37.209,-1053,-394,43,426,-19,-115,517,88,604,27.299999,47.700001,979.969971
16/06/2023,19:23:37.219,-1054,-403,-14,392,-105,-75,522,99,604,27.299999,47.700001,979.969971
16/06/2023,19:23:37.228,-1048,-391,-69,202,-131,-45,514,81,595,27.299999,47.700001,979.969971
16/06/2023,19:23:37.238,-1021,-378,-99,-36,-121,-37,526,88,592,27.299999,47.700001,979.969971
16/06/2023,19:23:37.247,-984,-348,-84,-220,-95,-27,531,96,589,27.299999,47.700001,979.969971
16/06/2023,19:23:37.256,-984,-348,-84,-293,-59,2,516,79,592,27.299999,47.700001,979.969971
16/06/2023,19:23:37.269,-988,-297,-24,-279,-36,30,514,97,600,27.299999,47.700001,979.969971
16/06/2023,19:23:37.274,-1023,-243,41,-200,-74,52,514,97,600,27.299999,47.700001,979.969971
16/06/2023,19:23:37.284,-1054,-204,87,-51,-196,77,526,96,583,27.299999,47.700001,979.969971
16/06/2023,19:23:37.294,-1054,-208,98,124,-321,106,508,97,612,27.299999,47.700001,979.969971
16/06/2023,19:23:37.303,-1037,-242,70,228,-399,137,531,76,595,27.299999,47.700001,979.969971
16/06/2023,19:23:37.313,-1018,-270,13,211,-424,179,526,85,577,27.299999,47.700001,979.969971
16/06/2023,19:23:37.322,-1012,-261,-44,103,-392,208,531,78,588,27.299999,47.700001,979.969971
16/06/2023,19:23:37.331,-1018,-222,-68,-20,-372,230,538,87,601,27.299999,47.700001,979.969971
16/06/2023,19:23:37.341,-1047,-175,-45,-99,-397,253,544,88,592,27.299999,47.700001,979.969971
16/06/2023,19:23:37.350,-1097,-127,-5,-142,-425,256,537,84,592,27.299999,47.700001,979.969971
16/06/2023,19:23:37.359,-1131,-88,31,-78,-432,261,555,64,586,27.299999,47.700001,979.969971
16/06/2023,19:23:37.368,-1143,-83,97,97,-478,275,555,64,586,27.299999,47.700001,979.969971
16/06/2023,19:23:37.378,-1127,-127,187,284,-521,302,546,73,571,27.299999,47.700001,979.969971
16/06/2023,19:23:37.388,-1103,-189,293,328,-549,318,544,78,583,27.299999,47.700001,979.969971
16/06/2023,19:23:37.397,-1098,-206,355,31,-591,292,547,79,571,27.299999,47.700001,979.969971
16/06/2023,19:23:37.406,-1109,-153,288,-580,-672,193,556,76,579,27.299999,47.700001,979.969971
16/06/2023,19:23:37.416,-1116,-106,72,-1150,-786,132,561,66,570,27.299999,47.700001,979.969971
16/06/2023,19:23:37.425,-1146,-114,-180,-1375,-861,146,544,75,567,27.299999,47.700001,979.969971
16/06/2023,19:23:37.434,-1159,-129,-375,-1229,-944,197,546,61,546,27.299999,47.700001,979.969971
16/06/2023,19:23:37.444,-1139,-84,-505,-812,-1013,230,559,76,549,27.299999,47.700001,979.969971
16/06/2023,19:23:37.453,-1142,7,-541,-270,-998,265,552,66,555,27.299999,47.700001,979.969971
16/06/2023,19:23:37.462,-1151,67,-480,244,-989,308,552,66,555,27.299999,47.700001,979.969971
16/06/2023,19:23:37.472,-1153,84,-387,674,-959,357,595,45,523,27.299999,47.700001,979.969971
16/06/2023,19:23:37.481,-1155,56,-269,959,-858,356,583,54,522,27.299999,47.700001,979.969971
16/06/2023,19:23:37.491,-1156,7,-144,1089,-825,372,562,63,531,27.299999,47.700001,979.969971
16/06/2023,19:23:37.500,-1152,-2,-71,1131,-785,394,585,55,511,27.299999,47.700001,979.969971
16/06/2023,19:23:37.509,-1101,25,-37,1105,-678,381,585,69,516,27.299999,47.700001,979.969971
16/06/2023,19:23:37.519,-1017,52,-14,987,-552,376,586,37,492,27.299999,47.700001,979.969971
16/06/2023,19:23:37.528,-948,44,-19,987,-552,376,582,61,510,27.299999,47.700001,979.969971
16/06/2023,19:23:37.537,-904,15,-62,832,-411,389,591,46,493,27.299999,47.700001,979.969971
16/06/2023,19:23:37.546,-876,-16,-100,693,-315,396,591,46,493,27.299999,47.700001,979.969971
16/06/2023,19:23:37.556,-860,-59,-101,637,-295,403,589,66,495,27.299999,47.700001,979.969971
16/06/2023,19:23:37.566,-841,-136,-63,634,-266,417,586,42,490,27.299999,47.700001,979.969971
16/06/2023,19:23:37.575,-814,-216,-43,578,-186,428,603,45,475,27.299999,47.700001,979.969971
16/06/2023,19:23:37.584,-804,-237,-72,468,-97,447,595,54,475,27.299999,47.700001,979.969971
16/06/2023,19:23:37.594,-820,-192,-111,398,-53,466,583,43,480,27.299999,47.700001,979.969971
16/06/2023,19:23:37.603,-820,-192,-111,410,-37,471,591,30,489,27.299999,47.700001,979.969971
16/06/2023,19:23:37.612,-826,-108,-121,464,-52,433,607,28,472,27.299999,47.700001,979.969971
16/06/2023,19:23:37.622,-794,-26,-74,430,-53,390,604,27,469,27.299999,47.700001,979.969971
16/06/2023,19:23:37.631,-755,28,-20,287,-19,342,610,31,486,27.299999,47.700001,979.969971
16/06/2023,19:23:37.640,-740,70,-16,32,39,279,610,31,486,27.299999,47.700001,979.969971
16/06/2023,19:23:37.649,-720,102,-51,-203,53,184,610,34,489,27.299999,47.700001,979.969971
16/06/2023,19:23:37.659,-671,120,-101,-402,95,94,595,45,478,27.299999,47.700001,979.969971
16/06/2023,19:23:37.669,-642,132,-128,-530,102,9,594,18,478,27.299999,47.700001,979.969971
16/06/2023,19:23:37.678,-632,125,-125,-618,88,-63,595,22,501,27.299999,47.700001,979.969971
16/06/2023,19:23:37.687,-612,98,-130,-695,111,-125,597,25,490,27.299999,47.700001,979.969971
16/06/2023,19:23:37.697,-614,79,-141,-730,156,-186,592,30,472,27.299999,47.700001,979.969971
16/06/2023,19:23:37.706,-639,64,-133,-774,156,-260,598,10,489,27.299999,47.700001,979.969971
16/06/2023,19:23:37.715,-674,51,-132,-834,151,-331,595,18,478,27.299999,47.700001,979.969971
16/06/2023,19:23:37.725,-706,37,-130,-862,161,-385,576,51,496,27.299999,47.700001,979.969971
16/06/2023,19:23:37.734,-746,20,-77,-877,147,-432,576,51,496,27.299999,47.700001,979.969971
16/06/2023,19:23:37.743,-790,-11,-5,-935,118,-485,591,27,501,27.299999,47.700001,979.969971
16/06/2023,19:23:37.753,-851,-61,20,-958,106,-516,586,16,495,27.299999,47.700001,979.969971
16/06/2023,19:23:37.762,-968,-117,60,-855,61,-527,598,36,513,27.299999,47.700001,979.969971
16/06/2023,19:23:37.772,-1105,-208,185,-652,-56,-480,586,24,495,27.299999,47.700001,979.969971
16/06/2023,19:23:37.781,-1244,-343,408,-370,-221,-387,589,25,516,27.299999,47.700001,979.969971
16/06/2023,19:23:37.790,-1394,-578,763,-48,-339,-203,594,22,492,27.299999,47.700001,979.969971
16/06/2023,19:23:37.800,-1482,-963,1005,112,-387,86,598,34,483,27.299999,47.700001,979.969971
16/06/2023,19:23:37.809,-1428,-1391,862,92,-189,528,600,39,493,27.299999,47.700001,979.969971
16/06/2023,19:23:37.818,-1379,-1521,593,-36,-7,798,579,22,505,27.299999,47.700001,979.969971
16/06/2023,19:23:37.830,-1317,-1225,405,-394,115,754,579,22,505,27.299999,47.700001,979.969971
16/06/2023,19:23:37.837,-1173,-774,193,-793,116,620,600,19,499,27.299999,47.700001,979.969971
16/06/2023,19:23:37.847,-1021,-397,-53,-920,-11,505,591,37,489,27.299999,47.700001,979.969971
16/06/2023,19:23:37.856,-859,-124,-254,-805,-167,428,591,7,508,27.299999,47.700001,979.969971
16/06/2023,19:23:37.865,-750,85,-380,-558,-219,361,601,1,508,27.299999,47.700001,979.969971
16/06/2023,19:23:37.875,-764,227,-454,-558,-219,361,606,0,493,27.299999,47.700001,979.969971
16/06/2023,19:23:37.883,-957,314,-462,-558,-219,361,606,0,493,27.299999,47.400002,979.969971
16/06/2023,19:23:37.893,-1191,311,-425,-75,-64,37,591,3,505,27.299999,47.400002,980.059998
16/06/2023,19:23:37.903,-1351,253,-384,-7,-55,-225,610,-1,510,27.299999,47.400002,980.059998
16/06/2023,19:23:37.912,-1409,224,-300,7,11,-404,610,-1,510,27.299999,47.400002,980.059998
16/06/2023,19:23:37.921,-1303,269,-102,78,143,-453,592,-15,496,27.299999,47.400002,980.059998
16/06/2023,19:23:37.931,-1161,429,329,237,289,-301,603,-9,507,27.299999,47.400002,980.059998
16/06/2023,19:23:37.940,-1120,590,589,340,400,-177,586,24,490,27.299999,47.400002,980.059998
16/06/2023,19:23:37.950,-1120,590,589,145,230,-233,615,10,516,27.299999,47.400002,980.059998
16/06/2023,19:23:37.959,-1094,586,368,47,56,-351,607,24,499,27.299999,47.400002,980.059998
16/06/2023,19:23:37.968,-1027,403,47,145,43,-408,591,1,511,27.299999,47.400002,980.059998
16/06/2023,19:23:37.978,-1002,161,-213,352,96,-432,600,28,508,27.299999,47.400002,980.059998
16/06/2023,19:23:37.987,-1034,-6,-353,483,272,-429,598,31,528,27.299999,47.400002,980.059998
16/06/2023,19:23:37.996,-1032,-96,-301,400,302,-420,598,31,528,27.299999,47.400002,980.059998
16/06/2023,19:23:38.005,-959,-154,-218,135,254,-409,622,31,498,27.299999,47.400002,980.059998
16/06/2023,19:23:38.015,-879,-193,-211,-121,241,-384,597,33,507,27.299999,47.400002,980.059998
16/06/2023,19:23:38.025,-838,-222,-198,-294,270,-392,595,28,523,27.299999,47.400002,980.059998
16/06/2023,19:23:38.034,-826,-236,-178,-417,275,-399,595,34,526,27.299999,47.400002,980.059998
16/06/2023,19:23:38.043,-828,-235,-201,-490,279,-381,598,30,528,27.299999,47.400002,980.059998
16/06/2023,19:23:38.053,-837,-221,-232,-491,288,-333,582,48,519,27.299999,47.400002,980.059998
16/06/2023,19:23:38.062,-854,-199,-242,-440,292,-286,594,46,526,27.299999,47.400002,980.059998
16/06/2023,19:23:38.071,-888,-167,-248,-350,318,-233,573,45,528,27.299999,47.400002,980.059998
16/06/2023,19:23:38.081,-926,-156,-240,-283,365,-189,583,45,537,27.299999,47.400002,980.059998
16/06/2023,19:23:38.090,-950,-148,-200,-163,421,-168,583,45,537,27.299999,47.400002,980.059998
16/06/2023,19:23:38.099,-962,-148,-131,13,446,-157,580,55,543,27.299999,47.400002,980.059998
16/06/2023,19:23:38.109,-980,-188,-80,163,390,-147,573,46,522,27.299999,47.400002,980.059998
16/06/2023,19:23:38.118,-988,-231,-70,220,355,-143,568,42,546,27.299999,47.400002,980.059998
16/06/2023,19:23:38.128,-988,-278,-64,155,372,-138,570,36,543,27.299999,47.400002,980.059998
16/06/2023,19:23:38.137,-985,-304,-44,29,400,-129,571,49,534,27.299999,47.400002,980.059998
16/06/2023,19:23:38.146,-970,-305,-20,-118,444,-107,585,49,543,27.299999,47.400002,980.059998
16/06/2023,19:23:38.156,-964,-278,-14,-178,477,-81,579,52,555,27.299999,47.400002,980.059998
16/06/2023,19:23:38.165,-958,-234,-13,-76,449,-63,562,43,576,27.299999,47.400002,980.059998
16/06/2023,19:23:38.174,-937,-221,-5,70,396,-56,571,46,567,27.299999,47.400002,980.059998
16/06/2023,19:23:38.186,-903,-227,-6,175,323,-52,571,46,567,27.299999,47.400002,980.059998
16/06/2023,19:23:38.193,-873,-234,-24,188,291,-43,568,55,577,27.299999,47.400002,980.059998
16/06/2023,19:23:38.203,-854,-233,-67,152,309,-34,568,55,577,27.299999,47.400002,980.059998
16/06/2023,19:23:38.212,-849,-213,-112,114,344,-27,555,58,565,27.299999,47.400002,980.059998
16/06/2023,19:23:38.221,-857,-172,-145,114,344,-27,562,69,565,27.299999,47.400002,980.059998
16/06/2023,19:23:38.231,-869,-132,-145,127,404,-13,564,34,567,27.299999,47.400002,980.059998
16/06/2023,19:23:38.240,-884,-115,-115,179,462,-1,559,72,582,27.299999,47.400002,980.059998
16/06/2023,19:23:38.249,-910,-110,-75,227,516,3,573,51,565,27.299999,47.400002,980.059998
16/06/2023,19:23:38.259,-946,-102,-36,273,553,0,573,49,594,27.299999,47.400002,980.059998
16/06/2023,19:23:38.268,-964,-98,-12,325,538,0,573,49,594,27.299999,47.400002,980.059998
16/06/2023,19:23:38.277,-964,-98,-12,381,499,-2,562,54,591,27.299999,47.400002,980.059998
16/06/2023,19:23:38.287,-945,-123,1,421,450,-6,552,63,592,27.299999,47.400002,980.059998
16/06/2023,19:23:38.296,-945,-123,1,440,390,-16,558,58,603,27.299999,47.400002,980.059998
16/06/2023,19:23:38.306,-938,-137,3,443,335,-30,553,57,600,27.299999,47.400002,980.059998
16/06/2023,19:23:38.315,-935,-157,-1,410,301,-44,556,43,607,27.299999,47.400002,980.059998
16/06/2023,19:23:38.324,-934,-163,-17,361,284,-54,558,58,585,27.299999,47.400002,980.059998
16/06/2023,19:23:38.334,-930,-153,-49,339,269,-67,522,76,595,27.299999,47.400002,980.059998
16/06/2023,19:23:38.343,-929,-138,-83,346,253,-87,538,66,600,27.299999,47.400002,980.059998
16/06/2023,19:23:38.352,-928,-127,-100,324,246,-105,549,67,606,27.299999,47.400002,980.059998
16/06/2023,19:23:38.361,-920,-126,-99,268,238,-122,549,67,606,27.299999,47.400002,980.059998
16/06/2023,19:23:38.371,-920,-138,-80,168,216,-139,541,88,607,27.299999,47.400002,980.059998
16/06/2023,19:23:38.381,-933,-154,-58,32,194,-163,549,63,607,27.299999,47.400002,980.059998
16/06/2023,19:23:38.390,-949,-168,-48,-104,201,-186,552,73,594,27.299999,47.400002,980.059998
16/06/2023,19:23:38.399,-978,-180,-46,-192,225,-198,537,66,619,27.299999,47.400002,980.059998
16/06/2023,19:23:38.409,-1006,-186,-45,-191,202,-183,532,84,615,27.299999,47.400002,980.059998
16/06/2023,19:23:38.418,-1054,-204,-63,-159,188,-175,532,73,609,27.299999,47.400002,980.059998
16/06/2023,19:23:38.427,-1119,-242,-110,-125,136,-187,540,58,613,27.299999,47.400002,980.059998
16/06/2023,19:23:38.437,-1133,-286,-170,-87,71,-199,553,87,624,27.299999,47.400002,980.059998
16/06/2023,19:23:38.446,-1120,-327,-212,-46,65,-193,547,78,622,27.299999,47.400002,980.059998
16/06/2023,19:23:38.455,-1114,-356,-197,-5,90,-175,547,78,622,27.299999,47.400002,980.059998
16/06/2023,19:23:38.464,-1130,-385,-122,45,81,-153,528,66,615,27.299999,47.400002,980.059998
16/06/2023,19:23:38.474,-1167,-467,-43,139,10,-114,529,63,606,27.299999,47.400002,980.059998
16/06/2023,19:23:38.484,-1239,-604,-9,211,-32,-13,526,81,607,27.299999,47.400002,980.059998
16/06/2023,19:23:38.493,-1306,-721,15,129,-143,108,534,91,607,27.299999,47.400002,980.059998
16/06/2023,19:23:38.502,-1282,-768,28,-31,-307,154,543,76,619,27.299999,47.400002,980.059998
16/06/2023,19:23:38.512,-1198,-761,46,-35,-332,235,552,81,609,27.299999,47.400002,980.059998
16/06/2023,19:23:38.521,-1148,-683,136,126,-379,377,547,58,592,27.299999,47.400002,980.059998
16/06/2023,19:23:38.531,-1109,-543,270,286,-591,489,547,70,613,27.299999,47.400002,980.059998
16/06/2023,19:23:38.540,-1051,-411,348,244,-834,569,541,73,607,27.299999,47.400002,980.059998
16/06/2023,19:23:38.549,-1029,-300,329,13,-912,616,541,73,607,27.299999,47.400002,980.059998
16/06/2023,19:23:38.558,-1021,-216,268,-326,-763,597,549,63,595,27.299999,47.400002,980.059998
16/06/2023,19:23:38.568,-1054,-177,243,-326,-763,597,549,54,591,27.299999,47.400002,980.059998
16/06/2023,19:23:38.577,-1229,-129,348,-651,-490,584,547,58,582,27.299999,47.400002,980.059998
16/06/2023,19:23:38.587,-1374,-12,455,-870,-466,592,558,39,577,27.299999,47.400002,980.059998
16/06/2023,19:23:38.596,-1305,117,327,-974,-796,513,552,61,597,27.299999,47.400002,980.059998
16/06/2023,19:23:38.605,-1184,195,28,-1205,-934,335,559,28,574,27.299999,47.400002,980.059998
16/06/2023,19:23:38.615,-1138,206,-308,-1683,-830,147,547,15,568,27.299999,47.400002,980.059998
16/06/2023,19:23:38.624,-1169,174,-625,-2136,-873,47,574,16,559,27.299999,47.400002,980.059998
16/06/2023,19:23:38.634,-1198,155,-848,-2132,-1053,54,576,0,564,27.299999,47.400002,980.059998
16/06/2023,19:23:38.645,-1198,155,-848,-1555,-1140,62,576,0,564,27.299999,47.400002,980.059998
16/06/2023,19:23:38.652,-1177,135,-863,-659,-1071,85,570,-3,562,27.299999,47.400002,980.059998
16/06/2023,19:23:38.662,-1133,116,-714,207,-1021,165,576,7,546,27.299999,47.400002,980.059998
16/06/2023,19:23:38.671,-1112,102,-553,895,-960,251,580,4,537,27.299999,47.400002,980.059998
16/06/2023,19:23:38.680,-1139,69,-404,1353,-877,278,586,12,520,27.299999,47.400002,980.059998
16/06/2023,19:23:38.690,-1134,6,-269,1634,-829,286,576,0,510,27.299999,47.400002,980.059998
16/06/2023,19:23:38.699,-1062,-65,-166,1710,-735,298,574,3,534,27.299999,47.400002,980.059998
16/06/2023,19:23:38.709,-949,-118,-101,1577,-549,286,582,1,505,27.299999,47.400002,980.059998
16/06/2023,19:23:38.718,-835,-161,-86,1277,-317,278,594,7,517,27.299999,47.400002,980.059998
16/06/2023,19:23:38.727,-761,-239,-93,992,-110,345,594,7,517,27.299999,47.400002,980.059998
16/06/2023,19:23:38.736,-762,-334,-71,727,-86,435,574,-10,526,27.299999,47.400002,980.059998
16/06/2023,19:23:38.746,-780,-412,-37,596,-167,493,577,0,516,27.299999,47.400002,980.059998
16/06/2023,19:23:38.755,-768,-443,2,627,-241,538,582,24,511,27.299999,47.400002,980.059998
16/06/2023,19:23:38.765,-748,-361,-27,712,-176,573,579,4,501,27.299999,47.400002,980.059998
16/06/2023,19:23:38.774,-744,-210,-116,976,-37,603,594,3,501,27.299999,47.400002,980.059998
16/06/2023,19:23:38.783,-756,-124,-93,1225,53,592,594,1,531,27.299999,47.400002,980.059998
16/06/2023,19:23:38.793,-764,-113,49,984,90,500,595,-19,504,27.299999,47.400002,980.059998
16/06/2023,19:23:38.802,-738,-95,84,470,139,398,568,-3,528,27.299999,47.400002,980.059998
16/06/2023,19:23:38.811,-713,-62,5,1,201,335,568,-3,528,27.299999,47.400002,980.059998
16/06/2023,19:23:38.820,-710,-46,-49,-387,198,279,592,-6,511,27.299999,47.400002,980.059998
16/06/2023,19:23:38.830,-686,-19,-102,-702,190,218,588,-16,496,27.299999,47.400002,980.059998
16/06/2023,19:23:38.840,-677,43,-124,-902,127,134,586,-13,505,27.299999,47.400002,980.059998
16/06/2023,19:23:38.852,-670,134,-140,-1016,78,41,594,-22,517,27.299999,47.400002,980.059998
16/06/2023,19:23:38.858,-647,240,-201,-969,103,-54,592,-18,502,27.299999,47.400002,980.059998
16/06/2023,19:23:38.868,-623,308,-237,-783,172,-117,580,-33,502,27.299999,47.400002,980.059998
16/06/2023,19:23:38.877,-607,307,-226,-556,254,-173,562,-10,513,27.299999,47.400002,980.059998
16/06/2023,19:23:38.887,-648,262,-163,-415,265,-234,588,-21,502,27.299999,47.400002,980.059998
16/06/2023,19:23:38.896,-691,205,-83,-415,265,-234,573,-28,514,27.299999,47.400002,980.059998
16/06/2023,19:23:38.905,-697,141,-53,-519,275,-412,573,-28,514,27.299999,47.400002,980.059998
16/06/2023,19:23:38.914,-743,69,-13,-519,275,-412,595,-10,525,27.299999,47.400002,980.059998
16/06/2023,19:23:38.924,-826,-11,43,-607,288,-487,573,-16,523,27.299999,47.400002,980.059998
16/06/2023,19:23:38.933,-933,-85,73,-744,279,-566,586,-28,534,27.299999,48.099998,979.989990
16/06/2023,19:23:38.943,-1077,-164,116,-826,215,-622,585,-16,529,27.299999,48.099998,979.989990
16/06/2023,19:23:38.952,-1239,-265,233,-802,108,-629,564,-16,550,27.299999,48.099998,979.989990
16/06/2023,19:23:38.961,-1405,-391,501,-601,-50,-570,577,-7,538,27.299999,48.099998,979.989990
16/06/2023,19:23:38.971,-1540,-614,992,-33,-254,-426,577,-4,537,27.299999,48.099998,979.989990
16/06/2023,19:23:38.980,-1516,-1058,1422,747,-357,-179,573,1,516,27.299999,48.099998,979.989990
16/06/2023,19:23:38.989,-1516,-1058,1422,1015,-459,133,573,1,516,27.299999,48.099998,979.989990
16/06/2023,19:23:39.001,-1287,-1493,1270,731,-506,581,579,-1,513,27.299999,48.099998,979.989990
16/06/2023,19:23:39.008,-1167,-1585,760,225,-240,795,577,1,520,27.299999,48.099998,979.989990
16/06/2023,19:23:39.018,-1207,-1405,378,-356,13,771,577,-4,531,27.299999,48.099998,979.989990
16/06/2023,19:23:39.027,-1246,-1008,136,-808,-4,633,592,-16,510,27.299999,48.099998,979.989990
16/06/2023,19:23:39.036,-1205,-544,-76,-964,-324,460,588,-27,528,27.299999,48.099998,979.989990
16/06/2023,19:23:39.046,-1106,-197,-297,-807,-513,416,585,-37,519,27.299999,48.099998,979.989990
16/06/2023,19:23:39.055,-1186,42,-393,-509,-484,349,565,-45,510,27.299999,48.099998,979.989990
16/06/2023,19:23:39.065,-1391,164,-352,-225,-394,239,579,-37,516,27.299999,48.099998,979.989990
16/06/2023,19:23:39.074,-1505,134,-214,-63,-223,210,577,-28,510,27.299999,48.099998,979.989990
16/06/2023,19:23:39.083,-1412,66,-59,4,-56,220,577,-28,510,27.299999,48.099998,979.989990
16/06/2023,19:23:39.092,-1112,97,-75,98,36,207,567,-58,519,27.299999,48.099998,979.989990
16/06/2023,19:23:39.102,-823,200,-203,159,102,143,588,-49,493,27.299999,48.099998,979.989990
16/06/2023,19:23:39.111,-763,298,-322,180,92,-26,588,-49,490,27.299999,48.099998,979.989990
16/06/2023,19:23:39.121,-895,353,-401,163,133,-328,570,-52,517,27.299999,48.099998,979.989990
16/06/2023,19:23:39.130,-1020,355,-425,191,240,-594,580,-36,501,27.299999,48.099998,979.989990
16/06/2023,19:23:39.139,-1028,334,-397,270,427,-681,565,-34,525,27.299999,48.099998,979.989990
16/06/2023,19:23:39.149,-984,347,-262,301,642,-560,577,-43,502,27.299999,48.099998,979.989990
16/06/2023,19:23:39.158,-959,548,343,-135,277,-526,582,-31,541,27.299999,48.099998,979.989990
16/06/2023,19:23:39.167,-965,613,330,-181,98,-597,582,-31,541,27.299999,48.099998,979.989990
16/06/2023,19:23:39.176,-987,286,-254,294,377,-591,568,-30,519,27.299999,48.099998,979.989990
16/06/2023,19:23:39.186,-1010,7,-279,403,495,-536,570,-21,525,27.299999,48.099998,979.989990
16/06/2023,19:23:39.196,-964,-83,-262,230,393,-539,576,-15,525,27.299999,48.099998,979.989990
16/06/2023,19:23:39.205,-853,-126,-298,42,373,-551,586,-9,526,27.299999,48.099998,979.989990
16/06/2023,19:23:39.214,-793,-178,-308,-168,447,-529,571,3,535,27.299999,48.099998,979.989990
16/06/2023,19:23:39.224,-803,-219,-299,-349,486,-478,559,-7,540,27.299999,48.099998,979.989990
16/06/2023,19:23:39.233,-847,-245,-282,-439,486,-434,562,-6,547,27.299999,48.099998,979.989990
16/06/2023,19:23:39.243,-887,-266,-267,-439,486,-434,552,-4,555,27.299999,48.099998,979.989990
16/06/2023,19:23:39.255,-916,-320,-207,-401,488,-385,574,3,565,27.299999,48.099998,979.989990
16/06/2023,19:23:39.261,-954,-383,-83,-63,573,-328,574,3,565,27.299999,48.099998,979.989990
16/06/2023,19:23:39.270,-987,-396,6,397,600,-244,561,-1,552,27.299999,48.099998,979.989990
16/06/2023,19:23:39.280,-984,-363,-8,653,511,-157,564,6,561,27.299999,48.099998,979.989990
16/06/2023,19:23:39.289,-969,-325,-61,661,427,-116,567,10,553,27.299999,48.099998,979.989990
16/06/2023,19:23:39.299,-970,-295,-76,522,395,-109,553,21,562,27.299999,48.099998,979.989990
16/06/2023,19:23:39.308,-975,-260,-70,288,383,-125,561,12,559,27.299999,48.099998,979.989990
16/06/2023,19:23:39.317,-977,-224,-54,33,385,-148,547,25,547,27.299999,48.099998,979.989990
16/06/2023,19:23:39.327,-968,-203,-40,-85,383,-159,555,1,582,27.299999,48.099998,979.989990
16/06/2023,19:23:39.336,-968,-203,-40,-94,378,-155,538,16,589,27.299999,48.099998,979.989990
16/06/2023,19:23:39.346,-954,-201,-50,-62,402,-149,562,28,582,27.299999,48.099998,979.989990
16/06/2023,19:23:39.354,-940,-198,-61,-57,446,-143,562,28,582,27.299999,48.099998,979.989990
16/06/2023,19:23:39.364,-939,-189,-69,-29,445,-125,543,9,589,27.299999,48.099998,979.989990
16/06/2023,19:23:39.374,-935,-187,-71,36,411,-110,544,4,600,27.299999,48.099998,979.989990
16/06/2023,19:23:39.383,-909,-182,-64,115,367,-93,549,12,577,27.299999,48.099998,979.989990
16/06/2023,19:23:39.392,-885,-178,-63,161,319,-85,543,31,579,27.299999,48.099998,979.989990
16/06/2023,19:23:39.402,-870,-182,-58,167,287,-81,540,25,601,27.299999,48.099998,979.989990
16/06/2023,19:23:39.411,-871,-188,-60,177,264,-72,540,27,583,27.299999,48.099998,979.989990
16/06/2023,19:23:39.421,-884,-196,-67,203,278,-51,552,22,607,27.299999,48.099998,979.989990
16/06/2023,19:23:39.430,-894,-198,-70,238,296,-36,528,18,594,27.299999,48.099998,979.989990
16/06/2023,19:23:39.439,-903,-192,-84,315,314,-32,531,36,588,27.299999,48.099998,979.989990
16/06/2023,19:23:39.448,-911,-191,-96,416,312,-13,531,36,588,27.299999,48.099998,979.989990
16/06/2023,19:23:39.458,-918,-177,-107,526,306,8,528,39,594,27.299999,48.099998,979.989990
16/06/2023,19:23:39.467,-916,-156,-108,612,308,14,535,22,601,27.299999,48.099998,979.989990
16/06/2023,19:23:39.477,-903,-150,-88,630,296,9,523,36,601,27.299999,48.099998,979.989990
16/06/2023,19:23:39.486,-908,-141,-80,589,288,-5,532,42,607,27.299999,48.099998,979.989990
16/06/2023,19:23:39.496,-934,-120,-86,524,295,-28,525,36,604,27.299999,48.099998,979.989990
16/06/2023,19:23:39.505,-954,-100,-102,477,298,-51,534,54,594,27.299999,48.099998,979.989990
16/06/2023,19:23:39.514,-956,-86,-131,467,297,-79,537,31,595,27.299999,48.099998,979.989990
16/06/2023,19:23:39.524,-951,-87,-150,478,309,-110,522,33,615,27.299999,48.099998,979.989990
16/06/2023,19:23:39.532,-944,-99,-139,453,329,-135,522,33,615,27.299999,48.099998,979.989990
16/06/2023,19:23:39.542,-957,-106,-105,387,331,-160,516,49,615,27.299999,48.099998,979.989990
16/06/2023,19:23:39.552,-987,-106,-25,368,291,-185,517,40,612,27.299999,48.099998,979.989990
16/06/2023,19:23:39.561,-1022,-151,69,436,201,-194,520,49,625,27.299999,48.099998,979.989990
16/06/2023,19:23:39.570,-1071,-230,95,490,122,-190,520,49,625,27.299999,48.099998,979.989990
16/06/2023,19:23:39.580,-1108,-283,43,437,62,-193,523,58,619,27.299999,48.099998,979.989990
16/06/2023,19:23:39.589,-1107,-307,-32,267,19,-211,534,61,604,27.299999,48.099998,979.989990
16/06/2023,19:23:39.599,-1085,-320,-93,44,-8,-229,523,55,621,27.299999,48.099998,979.989990
16/06/2023,19:23:39.608,-1072,-343,-122,44,-8,-229,507,55,612,27.299999,48.099998,979.989990
16/06/2023,19:23:39.617,-1078,-375,-108,-156,-5,-238,525,64,628,27.299999,48.099998,979.989990
16/06/2023,19:23:39.626,-1093,-412,-49,-289,6,-229,525,64,628,27.299999,48.099998,979.989990
16/06/2023,19:23:39.635,-1115,-453,1,-315,-26,-207,514,57,612,27.299999,48.099998,979.989990
16/06/2023,19:23:39.645,-1143,-529,0,-249,-100,-169,513,76,615,27.299999,48.099998,979.989990
16/06/2023,19:23:39.655,-1157,-608,-38,-223,-142,-109,519,76,622,27.299999,48.099998,979.989990
16/06/2023,19:23:39.664,-1129,-627,-89,-335,-202,-28,517,61,625,27.299999,48.099998,979.989990
16/06/2023,19:23:39.674,-1129,-617,-125,-503,-261,33,529,63,601,27.299999,48.099998,979.989990
16/06/2023,19:23:39.683,-1073,-617,-125,-574,-259,86,510,66,624,27.299999,48.099998,979.989990
16/06/2023,19:23:39.692,-1036,-583,-108,-475,-252,162,511,45,613,27.299999,48.099998,979.989990
16/06/2023,19:23:39.702,-1027,-502,-24,-227,-298,265,528,48,606,27.299999,48.099998,979.989990
16/06/2023,19:23:39.711,-1011,-400,129,117,-438,367,532,37,609,27.299999,48.099998,979.989990
16/06/2023,19:23:39.720,-996,-325,282,400,-627,466,532,37,609,27.299999,48.099998,979.989990
16/06/2023,19:23:39.729,-1008,-270,326,399,-664,535,522,46,627,27.299999,48.099998,979.989990
16/06/2023,19:23:39.739,-1032,-216,289,176,-556,551,525,46,609,27.299999,48.099998,979.989990
16/06/2023,19:23:39.748,-1126,-137,275,-87,-347,541,531,48,594,27.299999,48.099998,979.989990
16/06/2023,19:23:39.758,-1273,-24,370,-404,-326,457,520,36,597,27.299999,48.099998,979.989990
16/06/2023,19:23:39.767,-1297,82,387,-767,-558,310,508,52,598,27.299999,48.099998,979.989990
16/06/2023,19:23:39.777,-1185,143,153,-1187,-707,162,535,30,600,27.299999,48.099998,979.989990
16/06/2023,19:23:39.786,-1090,133,-152,-1492,-768,81,550,19,564,27.299999,48.099998,979.989990
16/06/2023,19:23:39.795,-1081,67,-368,-1446,-828,99,547,3,574,27.299999,48.099998,979.989990
16/06/2023,19:23:39.805,-1125,6,-461,-1069,-941,158,561,12,573,27.299999,48.099998,979.989990
16/06/2023,19:23:39.813,-1155,-24,-469,-565,-1006,198,561,12,573,27.299999,48.099998,979.989990
16/06/2023,19:23:39.823,-1130,-49,-430,-74,-981,230,576,-3,556,27.299999,48.099998,979.989990
16/06/2023,19:23:39.833,-1120,-58,-358,380,-959,300,546,36,561,27.299999,48.099998,979.989990
16/06/2023,19:23:39.842,-1148,-53,-285,765,-909,365,565,1,559,27.299999,48.099998,979.989990
16/06/2023,19:23:39.852,-1207,-19,-205,1028,-898,410,556,16,535,27.299999,48.099998,979.989990
16/06/2023,19:23:39.861,-1215,2,-142,1122,-864,416,568,16,538,27.299999,48.099998,979.989990
16/06/2023,19:23:39.870,-1166,2,-93,1089,-730,405,553,12,534,27.299999,48.099998,979.989990
16/06/2023,19:23:39.880,-1137,29,-33,1029,-661,390,562,6,523,27.299999,48.099998,979.989990
16/06/2023,19:23:39.889,-1078,52,-3,994,-666,375,565,3,535,27.299999,48.099998,979.989990
16/06/2023,19:23:39.898,-982,53,0,879,-577,358,571,15,520,27.299999,48.099998,979.989990
16/06/2023,19:23:39.907,-901,20,-2,637,-418,320,571,15,520,27.299999,48.099998,979.989990
16/06/2023,19:23:39.917,-830,-42,-16,405,-382,292,558,6,514,27.299999,48.099998,979.989990
16/06/2023,19:23:39.926,-763,-92,-57,284,-394,302,552,9,507,27.299999,48.099998,979.989990
16/06/2023,19:23:39.936,-733,-107,-111,250,-350,323,570,-3,516,27.299999,48.099998,979.989990
16/06/2023,19:23:39.945,-733,-95,-157,284,-221,322,564,1,504,27.299999,48.099998,979.989990
16/06/2023,19:23:39.955,-738,-58,-217,284,-221,322,583,4,499,27.299999,48.099998,979.989990
16/06/2023,19:23:39.964,-754,-17,-249,434,-96,315,582,7,505,27.299999,48.099998,979.989990
16/06/2023,19:23:39.974,-765,-19,-177,731,-51,310,582,7,505,27.299999,47.700001,979.989990
16/06/2023,19:23:39.983,-748,-35,-86,896,-24,263,565,3,508,27.299999,47.700001,979.940002
16/06/2023,19:23:39.991,-707,-25,-64,728,61,201,565,3,508,27.299999,47.700001,979.940002
16/06/2023,19:23:40.001,-707,-25,-64,440,128,120,564,1,495,27.299999,47.700001,979.940002
16/06/2023,19:23:40.011,-672,32,-120,134,178,57,582,3,502,27.299999,47.700001,979.940002
16/06/2023,19:23:40.024,-672,63,-120,-102,182,3,585,-6,490,27.299999,47.700001,979.940002
16/06/2023,19:23:40.030,-679,76,-135,-217,157,-61,571,7,493,27.299999,47.700001,979.940002
16/06/2023,19:23:40.039,-690,105,-147,-264,171,-126,562,10,493,27.299999,47.700001,979.940002
16/06/2023,19:23:40.048,-708,130,-176,-251,193,-191,570,0,495,27.299999,47.700001,979.940002
16/06/2023,19:23:40.058,-706,145,-208,-204,272,-254,567,1,495,27.299999,47.700001,979.940002
16/06/2023,19:23:40.067,-716,141,-200,-159,336,-308,567,16,507,27.299999,47.700001,979.940002
16/06/2023,19:23:40.076,-765,129,-129,-164,367,-384,561,4,511,27.299999,47.700001,979.940002
16/06/2023,19:23:40.085,-825,107,-19,-263,335,-478,561,4,511,27.299999,47.700001,979.940002
16/06/2023,19:23:40.095,-896,72,72,-493,287,-585,556,3,534,27.299999,47.700001,979.940002
16/06/2023,19:23:40.104,-1004,26,130,-784,255,-684,565,10,522,27.299999,47.700001,979.940002
16/06/2023,19:23:40.114,-1123,-63,194,-1062,217,-746,571,28,522,27.299999,47.700001,979.940002
16/06/2023,19:23:40.123,-1227,-221,325,-1257,170,-719,559,0,538,27.299999,47.700001,979.940002
16/06/2023,19:23:40.133,-1352,-451,679,-1350,175,-601,553,22,532,27.299999,47.700001,979.940002
16/06/2023,19:23:40.142,-1464,-775,1178,-1427,-11,-415,553,15,517,27.299999,47.700001,979.940002
16/06/2023,19:23:40.151,-1324,-1159,1088,-891,-260,-13,567,10,528,27.299999,47.700001,979.940002
16/06/2023,19:23:40.161,-1096,-1393,483,14,-154,550,562,30,519,27.299999,47.700001,979.940002
16/06/2023,19:23:40.170,-1040,-1289,184,369,155,642,549,-1,505,27.299999,47.700001,979.940002
16/06/2023,19:23:40.179,-944,-942,112,264,136,530,549,-1,505,27.299999,47.700001,979.940002
16/06/2023,19:23:40.188,-838,-577,-68,130,-28,473,550,13,522,27.299999,47.700001,979.940002
16/06/2023,19:23:40.198,-937,-258,-329,242,-189,383,561,12,528,27.299999,47.700001,979.940002
16/06/2023,19:23:40.208,-1162,-20,-522,439,-280,185,552,-7,526,27.299999,47.700001,979.940002
16/06/2023,19:23:40.217,-1327,58,-577,481,-276,59,559,-4,513,27.299999,47.700001,979.940002
16/06/2023,19:23:40.226,-1391,51,-509,405,-54,37,570,12,522,27.299999,47.700001,979.940002
16/06/2023,19:23:40.236,-1292,78,-323,255,250,95,562,12,511,27.299999,47.700001,979.940002
16/06/2023,19:23:40.245,-1095,227,3,63,426,131,555,-4,531,27.299999,47.700001,979.940002
16/06/2023,19:23:40.254,-1032,422,339,-266,415,18,555,-3,519,27.299999,47.700001,979.940002
16/06/2023,19:23:40.264,-1088,486,316,-532,201,-124,558,-9,529,27.299999,47.700001,979.940002
16/06/2023,19:23:40.273,-1057,462,27,-437,15,-228,558,-9,529,27.299999,47.700001,979.940002
16/06/2023,19:23:40.282,-953,431,-114,-148,-7,-253,541,15,537,27.299999,47.700001,979.940002
16/06/2023,19:23:40.292,-915,342,-140,31,36,-253,547,4,529,27.299999,47.700001,979.940002
16/06/2023,19:23:40.301,-924,195,-205,32,32,-295,549,16,529,27.299999,47.700001,979.940002
16/06/2023,19:23:40.311,-924,57,-263,95,102,-347,552,0,540,27.299999,47.700001,979.940002
16/06/2023,19:23:40.320,-933,-33,-295,72,130,-396,559,12,547,27.299999,47.700001,979.940002
16/06/2023,19:23:40.329,-935,-94,-301,-52,158,-455,538,22,544,27.299999,47.700001,979.940002
16/06/2023,19:23:40.339,-916,-138,-283,-253,221,-511,549,18,531,27.299999,47.700001,979.940002
16/06/2023,19:23:40.348,-885,-169,-285,-482,282,-529,547,19,546,27.299999,47.700001,979.940002
16/06/2023,19:23:40.357,-885,-169,-285,-668,343,-511,547,19,546,27.299999,47.700001,979.940002
16/06/2023,19:23:40.366,-850,-188,-292,-745,410,-472,541,15,526,27.299999,47.700001,979.940002
16/06/2023,19:23:40.376,-840,-201,-285,-720,443,-421,549,13,540,27.299999,47.700001,979.940002
16/06/2023,19:23:40.386,-863,-208,-275,-638,462,-365,544,21,540,27.299999,47.700001,979.940002
16/06/2023,19:23:40.395,-884,-215,-259,-522,495,-303,541,18,543,27.299999,47.700001,979.940002
16/06/2023,19:23:40.404,-902,-228,-222,-284,567,-242,543,21,558,27.299999,47.700001,979.940002
16/06/2023,19:23:40.414,-923,-244,-122,138,575,-174,535,37,546,27.299999,47.700001,979.940002
16/06/2023,19:23:40.423,-956,-251,-14,417,484,-139,553,27,565,27.299999,47.700001,979.940002
16/06/2023,19:23:40.432,-992,-244,2,428,407,-141,544,22,559,27.299999,47.700001,979.940002
16/06/2023,19:23:40.442,-1001,-236,-33,304,382,-151,550,48,562,27.299999,47.700001,979.940002
16/06/2023,19:23:40.451,-995,-248,-75,168,329,-141,550,48,562,27.299999,47.700001,979.940002
16/06/2023,19:23:40.460,-986,-246,-113,69,320,-122,531,40,574,27.299999,47.700001,979.940002
16/06/2023,19:23:40.470,-979,-213,-101,85,348,-108,528,40,576,27.299999,47.700001,979.940002
16/06/2023,19:23:40.479,-976,-204,-58,149,324,-97,540,39,582,27.299999,47.700001,979.940002
16/06/2023,19:23:40.489,-963,-225,-42,159,305,-87,528,31,591,27.299999,47.700001,979.940002
16/06/2023,19:23:40.498,-940,-238,-55,94,328,-86,519,42,580,27.299999,47.700001,979.940002
16/06/2023,19:23:40.507,-915,-227,-81,11,369,-86,513,43,577,27.299999,47.700001,979.940002
16/06/2023,19:23:40.517,-884,-202,-103,-29,395,-82,531,46,582,27.299999,47.700001,979.940002
16/06/2023,19:23:40.526,-859,-170,-103,-52,432,-75,514,45,574,27.299999,47.700001,979.940002
16/06/2023,19:23:40.535,-865,-137,-78,-58,462,-77,510,55,603,27.299999,47.700001,979.940002
16/06/2023,19:23:40.544,-891,-106,-68,-30,458,-81,510,55,603,27.299999,47.700001,979.940002
16/06/2023,19:23:40.554,-920,-79,-80,39,449,-84,520,37,571,27.299999,47.700001,979.940002
16/06/2023,19:23:40.564,-934,-60,-91,119,434,-90,523,39,597,27.299999,47.700001,979.940002
16/06/2023,19:23:40.573,-938,-52,-98,206,420,-97,505,45,609,27.299999,47.700001,979.940002
16/06/2023,19:23:40.585,-946,-52,-107,310,401,-98,505,36,592,27.299999,47.700001,979.940002
16/06/2023,19:23:40.592,-959,-60,-115,424,365,-98,522,63,604,27.299999,47.700001,979.940002
16/06/2023,19:23:40.601,-967,-69,-119,537,343,-98,511,58,601,27.299999,47.700001,979.940002
16/06/2023,19:23:40.610,-977,-72,-132,647,328,-100,517,60,598,27.299999,47.700001,979.940002
16/06/2023,19:23:40.620,-991,-73,-152,647,328,-100,508,64,600,27.299999,47.700001,979.940002
16/06/2023,19:23:40.629,-999,-79,-179,753,298,-102,499,61,601,27.299999,47.700001,979.940002
16/06/2023,19:23:40.638,-1006,-84,-202,838,282,-120,499,61,601,27.299999,47.700001,979.940002
16/06/2023,19:23:40.647,-1012,-88,-209,869,286,-130,502,57,609,27.299999,47.700001,979.940002
16/06/2023,19:23:40.657,-1023,-88,-206,833,292,-149,507,61,610,27.299999,47.700001,979.940002
16/06/2023,19:23:40.667,-1035,-80,-197,744,293,-174,489,64,589,27.299999,47.700001,979.940002
16/06/2023,19:23:40.676,-1046,-76,-187,616,296,-207,516,63,607,27.299999,47.700001,979.940002
16/06/2023,19:23:40.685,-1058,-89,-164,468,294,-241,490,96,612,27.299999,47.700001,979.940002
16/06/2023,19:23:40.695,-1068,-111,-98,317,298,-267,501,93,606,27.299999,47.700001,979.940002
16/06/2023,19:23:40.704,-1062,-185,15,217,267,-293,501,94,619,27.299999,47.700001,979.940002
16/06/2023,19:23:40.713,-1062,-185,15,299,204,-302,498,102,606,27.299999,47.700001,979.940002
16/06/2023,19:23:40.723,-1036,-296,84,479,78,-280,472,96,607,27.299999,47.700001,979.940002
16/06/2023,19:23:40.732,-1032,-378,61,548,-13,-250,472,96,607,27.299999,47.700001,979.940002
16/06/2023,19:23:40.742,-1057,-416,14,379,-69,-234,489,88,619,27.299999,47.700001,979.940002
16/06/2023,19:23:40.751,-1050,-428,-40,73,-107,-228,477,105,616,27.299999,47.700001,979.940002
16/06/2023,19:23:40.760,-1011,-446,-90,-182,-89,-226,493,94,598,27.299999,47.700001,979.940002
16/06/2023,19:23:40.770,-981,-470,-106,-296,-33,-211,489,108,607,27.299999,47.700001,979.940002
16/06/2023,19:23:40.779,-975,-467,-67,-245,-1,-183,480,103,594,27.299999,47.700001,979.940002
16/06/2023,19:23:40.788,-993,-411,13,-151,18,-128,486,97,607,27.299999,47.700001,979.940002
16/06/2023,19:23:40.798,-1022,-345,117,-75,-37,-77,474,93,619,27.299999,47.700001,979.940002
16/06/2023,19:23:40.807,-1078,-323,169,-35,-189,-35,492,99,601,27.299999,47.700001,979.940002
16/06/2023,19:23:40.816,-1204,-422,67,-110,-224,48,492,99,601,27.299999,47.700001,979.940002
16/06/2023,19:23:40.825,-1285,-555,-53,-383,-247,137,477,94,604,27.299999,47.700001,979.940002
16/06/2023,19:23:40.839,-1194,-551,-124,-563,-322,205,480,103,609,27.299999,47.700001,979.940002
16/06/2023,19:23:40.845,-1099,-481,-117,-377,-285,310,498,90,628,27.299999,47.700001,979.940002
16/06/2023,19:23:40.854,-1091,-423,57,-31,-386,417,496,108,609,27.299999,47.700001,979.940002
16/06/2023,19:23:40.863,-1070,-384,215,198,-660,509,481,82,609,27.299999,47.700001,979.940002
16/06/2023,19:23:40.873,-1102,-365,186,221,-796,601,490,82,601,27.299999,47.700001,979.940002
16/06/2023,19:23:40.882,-1192,-280,89,82,-765,629,489,91,598,27.299999,47.700001,979.940002
16/06/2023,19:23:40.891,-1239,-143,55,-178,-736,579,501,78,612,27.299999,47.700001,979.940002
16/06/2023,19:23:40.901,-1244,-79,74,-460,-620,509,487,76,601,27.299999,47.700001,979.940002
16/06/2023,19:23:40.910,-1255,-76,187,-627,-487,462,487,76,601,27.299999,47.700001,979.940002
16/06/2023,19:23:40.919,-1268,-74,326,-729,-601,423,519,93,592,27.299999,47.700001,979.940002
16/06/2023,19:23:40.929,-1235,-29,275,-813,-880,366,511,63,576,27.299999,47.700001,979.940002
16/06/2023,19:23:40.938,-1153,26,67,-939,-1014,280,519,72,591,27.299999,47.700001,979.940002
16/06/2023,19:23:40.948,-1119,22,-138,-1073,-1082,258,519,72,591,27.299999,47.700001,979.940002
16/06/2023,19:23:40.957,-1152,2,-366,-1042,-1155,264,522,49,586,27.299999,47.700001,979.940002
16/06/2023,19:23:40.966,-1113,-12,-610,-708,-1085,310,514,36,562,27.299999,47.700001,979.940002
16/06/2023,19:23:40.976,-1062,-3,-697,-219,-938,404,531,19,549,27.299999,47.700001,979.940002
16/06/2023,19:23:40.985,-1051,63,-632,-219,-938,404,523,33,556,27.299999,47.700001,979.940002
16/06/2023,19:23:40.995,-1021,136,-546,249,-831,466,540,37,546,27.299999,47.700001,979.940002
16/06/2023,19:23:41.003,-1034,176,-424,674,-722,506,540,37,546,27.299999,47.700001,979.940002
16/06/2023,19:23:41.013,-1067,151,-299,1013,-617,530,544,36,541,27.299999,47.700001,979.940002
16/06/2023,19:23:41.023,-1067,83,-210,1185,-539,549,553,40,531,27.299999,47.299999,979.950012
16/06/2023,19:23:41.032,-1056,27,-116,1249,-404,563,535,24,525,27.299999,47.299999,979.950012
16/06/2023,19:23:41.041,-1028,-57,-40,1304,-345,559,541,40,531,27.299999,47.299999,979.950012
16/06/2023,19:23:41.051,-974,-192,52,1402,-346,570,552,42,529,27.299999,47.299999,979.950012
16/06/2023,19:23:41.060,-974,-192,52,1347,-307,603,549,31,532,27.299999,47.299999,979.950012
16/06/2023,19:23:41.069,-930,-351,191,1015,-320,640,544,25,532,27.299999,47.299999,979.950012
16/06/2023,19:23:41.079,-908,-490,281,504,-373,664,561,27,516,27.299999,47.299999,979.950012
16/06/2023,19:23:41.091,-913,-505,249,1,-363,667,561,27,516,27.299999,47.299999,979.950012
16/06/2023,19:23:41.098,-909,-322,24,-156,-280,650,541,24,517,27.299999,47.299999,979.950012
16/06/2023,19:23:41.107,-886,-124,-251,179,-162,675,541,24,517,27.299999,47.299999,979.950012
16/06/2023,19:23:41.116,-888,-31,-261,572,-97,649,561,9,504,27.299999,47.299999,979.950012
16/06/2023,19:23:41.126,-880,37,-80,474,-102,589,561,9,495,27.299999,47.299999,979.950012
16/06/2023,19:23:41.135,-841,72,-13,157,-116,532,558,-12,484,27.299999,47.299999,979.950012
16/06/2023,19:23:41.144,-790,75,-47,-68,-128,453,541,-3,522,27.299999,47.299999,979.950012
16/06/2023,19:23:41.154,-745,75,-79,-140,-107,385,546,-4,517,27.299999,47.299999,979.950012
16/06/2023,19:23:41.163,-726,73,-99,-228,28,327,546,1,531,27.299999,47.299999,979.950012
16/06/2023,19:23:41.172,-710,63,-108,-455,142,247,546,1,531,27.299999,47.299999,979.950012
16/06/2023,19:23:41.181,-701,67,-138,-668,165,155,549,-16,499,27.299999,47.299999,979.950012
16/06/2023,19:23:41.194,-703,90,-165,-754,139,62,538,-4,516,27.299999,47.299999,979.950012
16/06/2023,19:23:41.201,-699,125,-158,-740,128,-18,556,-21,519,27.299999,47.299999,979.950012
16/06/2023,19:23:41.210,-697,168,-130,-694,130,-103,556,-27,520,27.299999,47.299999,979.950012
16/06/2023,19:23:41.219,-682,201,-113,-667,155,-191,544,-16,526,27.299999,47.299999,979.950012
16/06/2023,19:23:41.229,-651,219,-118,-629,196,-274,546,-25,505,27.299999,47.299999,979.950012
16/06/2023,19:23:41.238,-638,214,-119,-579,248,-338,547,-10,525,27.299999,47.299999,979.950012
16/06/2023,19:23:41.247,-644,198,-132,-506,300,-402,543,-18,519,27.299999,47.299999,979.950012
16/06/2023,19:23:41.257,-666,173,-140,-414,354,-457,549,-9,516,27.299999,47.299999,979.950012
16/06/2023,19:23:41.266,-726,135,-99,-386,380,-522,549,-9,516,27.299999,47.299999,979.950012
16/06/2023,19:23:41.275,-801,86,-25,-456,378,-611,546,-18,541,27.299999,47.299999,979.950012
16/06/2023,19:23:41.285,-863,32,38,-584,330,-686,549,-9,531,27.299999,47.299999,979.950012
16/06/2023,19:23:41.294,-935,-19,81,-660,251,-737,511,9,553,27.299999,47.299999,979.950012
16/06/2023,19:23:41.304,-1044,-86,149,-658,147,-775,532,-13,552,27.299999,47.299999,979.950012
16/06/2023,19:23:41.313,-1199,-200,331,-521,-53,-763,519,9,525,27.299999,47.299999,979.950012
16/06/2023,19:23:41.322,-1430,-380,717,-254,-403,-635,534,-4,531,27.299999,47.299999,979.950012
16/06/2023,19:23:41.332,-1599,-754,1097,-254,-403,-635,522,0,517,27.299999,47.299999,979.950012
16/06/2023,19:23:41.341,-1453,-1364,1132,93,-476,-364,526,21,532,27.299999,47.299999,979.950012
16/06/2023,19:23:41.351,-1307,-1774,938,459,-307,174,535,4,531,27.299999,47.299999,979.950012
16/06/2023,19:23:41.359,-1257,-1779,727,657,-269,868,535,4,531,27.299999,47.299999,979.950012
16/06/2023,19:23:41.369,-1145,-1468,489,436,-178,874,535,-4,531,27.299999,47.299999,979.950012
16/06/2023,19:23:41.379,-1031,-975,170,-220,-7,670,523,-7,543,27.299999,47.299999,979.950012
16/06/2023,19:23:41.388,-877,-555,-155,-673,-195,467,532,-3,526,27.299999,47.299999,979.950012
16/06/2023,19:23:41.397,-812,-207,-382,-646,-439,382,520,-1,544,27.299999,47.299999,979.950012
16/06/2023,19:23:41.407,-812,-207,-382,-339,-519,342,528,-4,525,27.299999,47.299999,979.950012
16/06/2023,19:23:41.416,-1020,67,-527,53,-348,187,523,-15,532,27.299999,47.299999,979.950012
16/06/2023,19:23:41.425,-1297,144,-522,323,-98,-8,523,-19,534,27.299999,47.299999,979.950012
16/06/2023,19:23:41.435,-1415,61,-409,336,42,-61,520,-12,528,27.299999,47.299999,979.950012
16/06/2023,19:23:41.447,-1394,-16,-316,195,145,-34,525,0,526,27.299999,47.299999,979.950012
16/06/2023,19:23:41.453,-1205,12,-247,46,233,23,525,0,526,27.299999,47.299999,979.950012
16/06/2023,19:23:41.462,-972,147,-173,-60,341,-14,525,7,525,27.299999,47.299999,979.950012
16/06/2023,19:23:41.472,-839,278,-119,-146,445,-132,522,-40,535,27.299999,47.299999,979.950012
16/06/2023,19:23:41.482,-882,376,-74,-185,455,-309,498,-13,549,27.299999,47.299999,979.950012
16/06/2023,19:23:41.491,-1009,446,-2,-153,307,-501,502,-12,559,27.299999,47.299999,979.950012
16/06/2023,19:23:41.500,-1028,459,125,-124,88,-573,504,1,573,27.299999,47.299999,979.950012
16/06/2023,19:23:41.510,-1022,378,74,-19,75,-487,504,12,559,27.299999,47.299999,979.950012
16/06/2023,19:23:41.519,-1083,213,-116,249,333,-458,520,1,553,27.299999,47.299999,979.950012
16/06/2023,19:23:41.529,-1112,74,-156,464,414,-429,514,10,556,27.299999,47.299999,979.950012
16/06/2023,19:23:41.538,-1045,-14,-139,517,288,-402,520,7,574,27.299999,47.299999,979.950012
16/06/2023,19:23:41.547,-924,-90,-141,410,223,-385,520,7,574,27.299999,47.299999,979.950012
16/06/2023,19:23:41.556,-850,-140,-135,215,250,-381,519,6,561,27.299999,47.299999,979.950012
16/06/2023,19:23:41.566,-811,-159,-123,-5,287,-401,496,24,556,27.299999,47.299999,979.950012
16/06/2023,19:23:41.575,-790,-159,-126,-198,292,-415,493,27,570,27.299999,47.299999,979.950012
16/06/2023,19:23:41.585,-804,-148,-141,-338,267,-415,487,16,567,27.299999,47.299999,979.950012
16/06/2023,19:23:41.594,-847,-114,-171,-386,240,-406,492,16,568,27.299999,47.299999,979.950012
16/06/2023,19:23:41.604,-884,-69,-195,-341,292,-401,483,13,577,27.299999,47.299999,979.950012
16/06/2023,19:23:41.613,-906,-47,-181,-276,381,-391,489,24,594,27.299999,47.299999,979.950012
16/06/2023,19:23:41.622,-923,-61,-164,-205,434,-392,474,25,586,27.299999,47.299999,979.950012
16/06/2023,19:23:41.632,-939,-108,-167,-147,468,-396,481,19,585,27.299999,47.299999,979.950012
16/06/2023,19:23:41.640,-951,-178,-169,-123,473,-392,481,19,585,27.299999,47.299999,979.950012
16/06/2023,19:23:41.650,-948,-266,-172,-130,498,-381,465,22,613,27.299999,47.299999,979.950012
16/06/2023,19:23:41.660,-952,-358,-161,-147,535,-357,456,34,613,27.299999,47.299999,979.950012
16/06/2023,19:23:41.669,-958,-438,-127,-141,523,-324,466,40,604,27.299999,47.299999,979.950012
16/06/2023,19:23:41.678,-945,-482,-74,-141,523,-324,451,39,598,27.299999,47.299999,979.950012
16/06/2023,19:23:41.688,-942,-459,-40,-181,469,-276,448,39,600,27.299999,47.299999,979.950012
16/06/2023,19:23:41.700,-933,-387,-56,-285,398,-214,451,43,615,27.299999,47.299999,979.950012
16/06/2023,19:23:41.707,-904,-292,-80,-404,399,-168,438,51,619,27.299999,47.299999,979.950012
16/06/2023,19:23:41.716,-886,-211,-79,-449,466,-151,447,36,615,27.299999,47.299999,979.950012
16/06/2023,19:23:41.725,-889,-154,-69,-387,484,-125,447,36,615,27.299999,47.299999,979.950012
16/06/2023,19:23:41.734,-889,-154,-69,-273,478,-86,448,49,624,27.299999,47.299999,979.950012
16/06/2023,19:23:41.744,-898,-65,-58,-146,455,-69,453,27,610,27.299999,47.299999,979.950012
16/06/2023,19:23:41.753,-898,-65,-58,5,421,-63,424,31,642,27.299999,47.299999,979.950012
16/06/2023,19:23:41.763,-909,-56,-63,139,390,-55,426,39,625,27.299999,47.299999,979.950012
16/06/2023,19:23:41.772,-915,-66,-76,260,365,-42,427,48,627,27.299999,47.299999,979.950012
16/06/2023,19:23:41.782,-906,-89,-78,357,357,-34,430,28,628,27.299999,47.299999,979.950012
16/06/2023,19:23:41.791,-908,-106,-67,385,387,-25,435,18,637,27.299999,47.299999,979.950012
16/06/2023,19:23:41.803,-926,-105,-54,364,414,-21,427,34,642,27.299999,47.299999,979.950012
16/06/2023,19:23:41.810,-938,-101,-48,352,414,-18,403,45,648,27.299999,47.299999,979.950012
16/06/2023,19:23:41.818,-949,-81,-48,372,399,-18,403,45,648,27.299999,47.299999,979.950012
16/06/2023,19:23:41.828,-952,-53,-54,425,372,-30,408,39,631,27.299999,47.299999,979.950012
16/06/2023,19:23:41.838,-954,-38,-56,488,336,-39,400,42,645,27.299999,47.299999,979.950012
16/06/2023,19:23:41.847,-973,-37,-56,534,292,-62,399,51,645,27.299999,47.299999,979.950012
16/06/2023,19:23:41.856,-987,-51,-67,560,253,-86,390,43,660,27.299999,47.299999,979.950012
16/06/2023,19:23:41.866,-990,-72,-81,566,225,-109,382,48,660,27.299999,47.299999,979.950012
16/06/2023,19:23:41.875,-988,-95,-97,563,209,-128,400,49,663,27.299999,47.299999,979.950012
16/06/2023,19:23:41.885,-976,-117,-109,544,199,-142,375,60,639,27.299999,47.299999,979.950012
16/06/2023,19:23:41.894,-966,-130,-118,495,211,-161,378,40,642,27.299999,47.299999,979.950012
16/06/2023,19:23:41.906,-975,-143,-101,409,225,-189,381,64,646,27.299999,47.299999,979.950012
16/06/2023,19:23:41.912,-1014,-171,-48,287,202,-226,381,64,646,27.299999,47.299999,979.950012
16/06/2023,19:23:41.921,-1056,-248,-11,198,129,-263,370,66,676,27.299999,47.299999,979.950012
16/06/2023,19:23:41.931,-1060,-357,-18,142,71,-276,367,82,664,27.299999,47.299999,979.950012
16/06/2023,19:23:41.941,-1048,-430,-46,46,32,-271,366,70,652,27.299999,47.299999,979.950012
16/06/2023,19:23:41.950,-1041,-455,-87,-94,15,-265,372,70,637,27.299999,47.299999,979.950012
16/06/2023,19:23:41.960,-1024,-470,-111,-228,11,-242,369,72,648,27.299999,47.299999,979.950012
16/06/2023,19:23:41.969,-1021,-503,-109,-329,10,-192,367,63,654,27.299999,47.299999,979.950012
16/06/2023,19:23:41.978,-1054,-531,-72,-349,38,-167,369,67,657,27.299999,47.299999,979.950012
16/06/2023,19:23:41.988,-1070,-522,25,-308,0,-123,360,67,655,27.299999,47.299999,979.950012
16/06/2023,19:23:41.997,-1084,-497,114,-262,-101,-65,340,69,651,27.299999,47.299999,979.950012
16/06/2023,19:23:42.006,-1160,-539,91,-319,-153,16,340,69,651,27.299999,47.299999,979.950012
16/06/2023,19:23:42.015,-1200,-590,-4,-495,-243,100,343,57,684,27.299999,47.299999,979.950012
16/06/2023,19:23:42.025,-1137,-549,-91,-495,-243,100,337,64,663,27.299999,47.299999,979.950012
16/06/2023,19:23:42.034,-1098,-463,-89,-644,-263,164,354,54,670,27.299999,47.299999,979.950012
16/06/2023,19:23:42.044,-1101,-376,15,-598,-241,249,333,51,684,27.299999,47.299999,979.950012
16/06/2023,19:23:42.053,-1078,-281,139,-379,-344,343,349,43,678,27.299999,47.299999,979.950012
16/06/2023,19:23:42.062,-1063,-204,196,-107,-544,431,340,31,694,27.299999,47.599998,979.919983
16/06/2023,19:23:42.072,-1085,-156,190,4,-681,499,360,18,676,27.299999,47.599998,979.919983
16/06/2023,19:23:42.081,-1176,-98,216,-73,-639,516,351,19,672,27.299999,47.599998,979.919983
16/06/2023,19:23:42.091,-1298,-22,328,-181,-422,521,360,10,687,27.299999,47.599998,979.919983
16/06/2023,19:23:42.099,-1298,-22,328,-322,-275,462,360,10,687,27.299999,47.599998,979.919983
16/06/2023,19:23:42.109,-1316,35,413,-576,-425,371,343,10,700,27.299999,47.599998,979.919983
16/06/2023,19:23:42.119,-1209,66,300,-876,-658,255,360,3,682,27.299999,47.599998,979.919983
16/06/2023,19:23:42.128,-1083,79,46,-1204,-730,148,364,-1,687,27.299999,47.599998,979.919983
16/06/2023,19:23:42.138,-1032,70,-223,-1489,-748,110,355,-24,690,27.299999,47.599998,979.919983
16/06/2023,19:23:42.147,-1072,44,-472,-1490,-878,129,367,-36,688,27.299999,47.599998,979.919983
16/06/2023,19:23:42.159,-1140,9,-643,-1133,-981,165,361,-46,696,27.299999,47.599998,979.919983
16/06/2023,19:23:42.166,-1185,-22,-672,-569,-963,190,378,-61,682,27.299999,47.599998,979.919983
16/06/2023,19:23:42.175,-1195,-30,-582,6,-916,221,376,-78,684,27.299999,47.599998,979.919983
16/06/2023,19:23:42.184,-1180,-1,-450,572,-936,280,376,-78,684,27.299999,47.599998,979.919983
16/06/2023,19:23:42.193,-1173,23,-324,1139,-991,340,393,-91,690,27.299999,47.599998,979.919983
16/06/2023,19:23:42.203,-1165,11,-206,1623,-957,392,393,-79,696,27.299999,47.599998,979.919983
16/06/2023,19:23:42.212,-1135,-29,-76,1839,-806,416,393,-66,672,27.299999,47.599998,979.919983
16/06/2023,19:23:42.222,-1078,-62,43,1742,-678,418,400,-78,684,27.299999,47.599998,979.919983
16/06/2023,19:23:42.231,-1013,-60,104,1466,-595,417,402,-99,679,27.299999,47.599998,979.919983
16/06/2023,19:23:42.241,-948,-58,110,1069,-456,415,415,-75,661,27.299999,47.599998,979.919983
16/06/2023,19:23:42.250,-876,-69,89,684,-389,413,405,-79,658,27.299999,47.599998,979.919983
16/06/2023,19:23:42.259,-801,-103,52,383,-384,424,403,-70,684,27.299999,47.599998,979.919983
16/06/2023,19:23:42.269,-772,-141,14,201,-408,443,417,-94,667,27.299999,47.599998,979.919983
16/06/2023,19:23:42.277,-791,-139,-30,137,-449,455,417,-94,667,27.299999,47.599998,979.919983
16/06/2023,19:23:42.287,-803,-97,-100,174,-438,453,423,-109,667,27.299999,47.599998,979.919983
16/06/2023,19:23:42.297,-793,-59,-137,323,-328,441,426,-109,663,27.299999,47.599998,979.919983
16/06/2023,19:23:42.306,-777,-33,-114,506,-219,417,420,-106,667,27.299999,47.599998,979.919983
16/06/2023,19:23:42.316,-785,0,-55,646,-140,390,436,-106,651,27.299999,47.599998,979.919983
16/06/2023,19:23:42.325,-787,23,-24,616,-102,331,442,-121,669,27.299999,47.599998,979.919983
16/06/2023,19:23:42.334,-751,40,-67,505,-83,284,424,-132,660,27.299999,47.599998,979.919983
16/06/2023,19:23:42.344,-712,52,-109,385,-40,252,429,-121,655,27.299999,47.599998,979.919983
16/06/2023,19:23:42.353,-688,48,-105,385,-40,252,426,-124,661,27.299999,47.599998,979.919983
16/06/2023,19:23:42.362,-673,56,-82,175,25,203,441,-118,640,27.299999,47.599998,979.919983
16/06/2023,19:23:42.371,-668,85,-78,-72,41,122,441,-118,640,27.299999,47.599998,979.919983
16/06/2023,19:23:42.381,-664,121,-113,-294,14,32,424,-142,634,27.299999,47.599998,979.919983
16/06/2023,19:23:42.390,-649,144,-159,-432,22,-64,435,-147,630,27.299999,47.599998,979.919983
16/06/2023,19:23:42.400,-642,114,-163,-445,87,-146,450,-142,631,27.299999,47.599998,979.919983
16/06/2023,19:23:42.412,-656,57,-149,-432,134,-202,441,-144,642,27.299999,47.599998,979.919983
16/06/2023,19:23:42.419,-706,15,-142,-446,188,-260,435,-148,625,27.299999,47.599998,979.919983
16/06/2023,19:23:42.428,-765,-18,-106,-450,188,-318,429,-139,640,27.299999,47.599998,979.919983
16/06/2023,19:23:42.437,-786,-56,-56,-467,191,-386,427,-145,634,27.299999,47.599998,979.919983
16/06/2023,19:23:42.447,-786,-56,-56,-555,206,-444,435,-139,607,27.299999,47.599998,979.919983
16/06/2023,19:23:42.456,-817,-91,-12,-666,211,-490,435,-133,624,27.299999,47.599998,979.919983
16/06/2023,19:23:42.465,-868,-125,32,-809,214,-542,435,-133,624,27.299999,47.599998,979.919983
16/06/2023,19:23:42.474,-933,-170,85,-949,232,-564,423,-153,628,27.299999,47.599998,979.919983
16/06/2023,19:23:42.484,-1053,-224,172,-920,172,-531,430,-154,627,27.299999,47.599998,979.919983
16/06/2023,19:23:42.494,-1234,-310,369,-600,-7,-429,445,-159,613,27.299999,47.599998,979.919983
16/06/2023,19:23:42.503,-1434,-465,804,-3,-198,-238,426,-141,609,27.299999,47.599998,979.919983
16/06/2023,19:23:42.512,-1536,-842,1324,417,-331,8,436,-133,585,27.299999,47.599998,979.919983
16/06/2023,19:23:42.522,-1366,-1366,1292,316,-334,451,453,-144,604,27.299999,47.599998,979.919983
16/06/2023,19:23:42.531,-1234,-1582,794,-87,-225,716,462,-139,585,27.299999,47.599998,979.919983
16/06/2023,19:23:42.540,-1273,-1420,453,-521,-134,643,448,-150,573,27.299999,47.599998,979.919983
16/06/2023,19:23:42.550,-1254,-1090,267,-902,-124,524,475,-159,574,27.299999,47.599998,979.919983
16/06/2023,19:23:42.559,-1149,-682,57,-1089,-163,419,475,-159,574,27.299999,47.599998,979.919983
16/06/2023,19:23:42.568,-1009,-324,-131,-1002,-218,386,447,-160,577,27.299999,47.599998,979.919983
16/06/2023,19:23:42.578,-958,-49,-263,-785,-236,352,483,-172,562,27.299999,47.599998,979.919983
16/06/2023,19:23:42.587,-1072,170,-363,-513,-145,253,465,-162,546,27.299999,47.599998,979.919983
16/06/2023,19:23:42.597,-1230,269,-363,-237,9,130,483,-160,550,27.299999,47.599998,979.919983
16/06/2023,19:23:42.606,-1278,222,-273,-38,115,56,466,-154,546,27.299999,47.599998,979.919983
16/06/2023,19:23:42.615,-1236,148,-160,93,264,39,471,-163,547,27.299999,47.599998,979.919983
16/06/2023,19:23:42.625,-1105,166,-92,209,372,66,468,-175,550,27.299999,47.599998,979.919983
16/06/2023,19:23:42.634,-980,277,-94,319,371,21,463,-180,553,27.299999,47.599998,979.919983
16/06/2023,19:23:42.643,-1000,382,-129,338,312,-141,478,-157,549,27.299999,47.599998,979.919983
16/06/2023,19:23:42.652,-1130,420,-190,298,294,-383,478,-157,549,27.299999,47.599998,979.919983
16/06/2023,19:23:42.662,-1176,395,-224,223,343,-505,480,-139,564,27.299999,47.599998,979.919983
16/06/2023,19:23:42.672,-1083,365,-78,45,333,-379,480,-139,564,27.299999,47.599998,979.919983
16/06/2023,19:23:42.681,-994,394,118,-220,125,-352,481,-151,549,27.299999,47.599998,979.919983
16/06/2023,19:23:42.690,-939,313,40,-123,39,-442,474,-154,552,27.299999,47.599998,979.919983
16/06/2023,19:23:42.700,-925,127,-146,126,173,-485,480,-144,538,27.299999,47.599998,979.919983
16/06/2023,19:23:42.709,-943,15,-207,243,216,-505,484,-132,550,27.299999,47.599998,979.919983
16/06/2023,19:23:42.718,-925,-52,-242,243,216,-505,478,-150,556,27.299999,47.599998,979.919983
16/06/2023,19:23:42.728,-887,-98,-282,227,178,-522,486,-129,544,27.299999,47.599998,979.919983
16/06/2023,19:23:42.737,-859,-129,-291,129,235,-520,486,-129,544,27.299999,47.599998,979.919983
16/06/2023,19:23:42.746,-839,-156,-288,-35,333,-505,495,-117,534,27.299999,47.599998,979.919983
16/06/2023,19:23:42.756,-828,-183,-296,-240,379,-483,505,-126,559,27.299999,47.599998,979.919983
16/06/2023,19:23:42.765,-841,-203,-304,-432,409,-458,490,-118,544,27.299999,47.599998,979.919983
16/06/2023,19:23:42.775,-873,-218,-315,-559,427,-425,502,-123,538,27.299999,47.599998,979.919983
16/06/2023,19:23:42.784,-899,-228,-326,-622,465,-394,487,-117,565,27.299999,47.599998,979.919983
16/06/2023,19:23:42.793,-899,-228,-326,-621,552,-349,474,-132,568,27.299999,47.599998,979.919983
16/06/2023,19:23:42.803,-927,-235,-312,-558,625,-306,484,-103,547,27.299999,47.599998,979.919983
16/06/2023,19:23:42.812,-947,-249,-282,-450,651,-266,492,-112,547,27.299999,47.599998,979.919983
16/06/2023,19:23:42.821,-950,-306,-210,-18,797,-224,480,-117,559,27.299999,47.599998,979.919983
16/06/2023,19:23:42.830,-959,-383,-49,527,773,-147,480,-117,559,27.299999,47.599998,979.919983
16/06/2023,19:23:42.840,-972,-402,102,707,598,-84,487,-93,571,27.299999,47.599998,979.919983
16/06/2023,19:23:42.850,-983,-367,160,501,453,-71,478,-100,580,27.299999,47.599998,979.919983
16/06/2023,19:23:42.859,-983,-308,133,215,361,-72,481,-76,601,27.299999,47.599998,979.919983
16/06/2023,19:23:42.868,-965,-230,52,71,354,-60,481,-90,576,27.299999,47.599998,979.919983
16/06/2023,19:23:42.878,-954,-159,-13,82,393,-43,483,-91,595,27.299999,47.599998,979.919983
16/06/2023,19:23:42.887,-962,-120,-22,170,388,-32,477,-91,568,27.299999,47.599998,979.919983
16/06/2023,19:23:42.896,-957,-114,-26,247,356,-23,493,-81,579,27.299999,47.599998,979.919983
16/06/2023,19:23:42.906,-932,-120,-50,284,336,-28,471,-99,592,27.299999,47.599998,979.919983
16/06/2023,19:23:42.915,-905,-118,-71,289,308,-46,463,-97,573,27.299999,47.599998,979.919983
16/06/2023,19:23:42.924,-893,-120,-90,295,294,-62,463,-97,573,27.299999,47.599998,979.919983
16/06/2023,19:23:42.933,-882,-132,-98,334,294,-58,474,-94,570,27.299999,47.599998,979.919983
16/06/2023,19:23:42.943,-874,-140,-87,372,321,-56,477,-67,603,27.299999,47.599998,979.919983
16/06/2023,19:23:42.953,-882,-154,-64,367,351,-57,480,-85,607,27.299999,47.599998,979.919983
16/06/2023,19:23:42.962,-912,-159,-46,343,360,-56,484,-76,606,27.299999,47.599998,979.919983
16/06/2023,19:23:42.971,-945,-148,-34,313,354,-57,483,-63,606,27.299999,47.599998,979.919983
16/06/2023,19:23:42.981,-960,-135,-26,296,337,-60,483,-78,592,27.299999,47.599998,979.919983
16/06/2023,19:23:42.990,-963,-128,-17,299,291,-63,477,-57,597,27.299999,47.599998,979.919983
16/06/2023,19:23:42.999,-957,-133,-20,326,235,-63,481,-61,592,27.299999,47.599998,979.919983
16/06/2023,19:23:43.009,-958,-148,-30,327,210,-65,465,-70,603,27.299999,47.599998,979.919983
16/06/2023,19:23:43.018,-969,-165,-40,292,199,-75,465,-70,603,27.299999,47.599998,979.919983
16/06/2023,19:23:43.027,-974,-172,-62,235,182,-85,471,-58,615,27.299999,47.599998,979.919983
16/06/2023,19:23:43.037,-970,-172,-102,196,192,-91,468,-52,592,27.299999,47.599998,979.919983
16/06/2023,19:23:43.046,-967,-164,-139,183,221,-101,481,-34,609,27.299999,47.599998,979.919983
16/06/2023,19:23:43.056,-972,-149,-158,178,251,-114,487,-48,610,27.299999,47.599998,979.919983
16/06/2023,19:23:43.065,-995,-140,-151,178,251,-114,457,-39,618,27.299999,47.599998,979.919983
16/06/2023,19:23:43.074,-1023,-127,-119,147,268,-130,477,-40,612,27.299999,47.599998,979.919983
16/06/2023,19:23:43.084,-1047,-113,-41,106,281,-151,465,-34,607,27.299999,47.599998,979.919983
16/06/2023,19:23:43.093,-1060,-120,79,75,291,-169,493,-39,604,27.299999,47.599998,979.919983
16/06/2023,19:23:43.104,-1058,-152,162,86,231,-181,493,-39,604,27.299999,48.000000,979.919983
16/06/2023,19:23:43.111,-1058,-152,162,140,102,-187,465,-16,627,27.299999,48.000000,980.020020
16/06/2023,19:23:43.121,-1065,-201,151,174,-30,-204,465,-16,627,27.299999,48.000000,980.020020
16/06/2023,19:23:43.131,-1069,-340,-57,135,-121,-212,463,-9,601,27.299999,48.000000,980.020020
16/06/2023,19:23:43.140,-1063,-340,-57,0,-149,-205,474,-21,604,27.299999,48.000000,980.020020
16/06/2023,19:23:43.149,-1047,-394,-132,-184,-156,-196,469,-10,622,27.299999,48.000000,980.020020
16/06/2023,19:23:43.159,-1031,-445,-166,-350,-149,-187,489,-19,607,27.299999,48.000000,980.020020
16/06/2023,19:23:43.168,-1033,-498,-162,-416,-144,-165,478,-30,633,27.299999,48.000000,980.020020
16/06/2023,19:23:43.177,-1056,-549,-131,-369,-150,-113,478,-6,618,27.299999,48.000000,980.020020
16/06/2023,19:23:43.187,-1092,-578,-91,-296,-176,-28,475,-25,618,27.299999,48.000000,980.020020
16/06/2023,19:23:43.196,-1081,-558,-53,-280,-249,43,477,-24,616,27.299999,48.000000,980.020020
16/06/2023,19:23:43.205,-1037,-484,-20,-299,-315,107,477,-24,616,27.299999,48.000000,980.020020
16/06/2023,19:23:43.214,-1021,-402,29,-282,-352,169,471,-10,625,27.299999,48.000000,980.020020
16/06/2023,19:23:43.224,-1034,-337,123,-206,-415,233,471,-10,625,27.299999,48.000000,980.020020
16/06/2023,19:23:43.234,-1038,-282,230,-124,-524,298,493,-13,607,27.299999,48.000000,980.020020
16/06/2023,19:23:43.243,-1028,-245,291,-109,-639,367,483,-12,600,27.299999,48.000000,980.020020
16/06/2023,19:23:43.252,-1040,-224,240,-228,-674,418,493,-7,591,27.299999,48.000000,980.020020
16/06/2023,19:23:43.262,-1074,-199,105,-418,-563,438,490,-21,606,27.299999,48.000000,980.020020
16/06/2023,19:23:43.271,-1132,-138,9,-540,-343,438,517,-19,600,27.299999,48.000000,980.020020
16/06/2023,19:23:43.281,-1205,-49,38,-550,-191,399,499,-19,586,27.299999,48.000000,980.020020
16/06/2023,19:23:43.290,-1253,0,164,-509,-254,349,507,-28,579,27.299999,48.000000,980.020020
16/06/2023,19:23:43.299,-1240,6,222,-430,-546,284,507,-28,579,27.299999,48.000000,980.020020
16/06/2023,19:23:43.308,-1164,6,128,-418,-732,207,511,-33,585,27.299999,48.000000,980.020020
16/06/2023,19:23:43.318,-1098,-13,-39,-578,-769,144,519,-24,595,27.299999,48.000000,980.020020
16/06/2023,19:23:43.327,-1087,-41,-229,-755,-823,125,520,-49,586,27.299999,48.000000,980.020020
16/06/2023,19:23:43.337,-1116,-67,-410,-769,-896,123,519,-16,567,27.299999,48.000000,980.020020
16/06/2023,19:23:43.346,-1143,-99,-530,-572,-861,131,517,-36,561,27.299999,48.000000,980.020020
16/06/2023,19:23:43.355,-1126,-135,-542,-216,-778,159,508,-45,573,27.299999,48.000000,980.020020
16/06/2023,19:23:43.365,-1107,-127,-461,211,-764,223,519,-49,555,27.299999,48.000000,980.020020
16/06/2023,19:23:43.374,-1130,-82,-350,667,-826,278,522,-49,561,27.299999,48.000000,980.020020
16/06/2023,19:23:43.384,-1173,-60,-252,1100,-844,326,529,-36,543,27.299999,48.000000,980.020020
16/06/2023,19:23:43.392,-1189,-81,-153,1419,-779,362,529,-36,543,27.299999,48.000000,980.020020
16/06/2023,19:23:43.402,-1124,-125,-49,1501,-611,378,538,-36,535,27.299999,48.000000,980.020020
16/06/2023,19:23:43.412,-1024,-155,40,1501,-611,378,522,-18,537,27.299999,48.000000,980.020020
16/06/2023,19:23:43.421,-953,-159,88,1338,-434,388,546,-22,534,27.299999,48.000000,980.020020
16/06/2023,19:23:43.430,-900,-180,82,1014,-356,389,547,-30,538,27.299999,48.000000,980.020020
16/06/2023,19:23:43.440,-869,-226,62,617,-245,391,556,-37,522,27.299999,48.000000,980.020020
16/06/2023,19:23:43.449,-846,-284,35,285,-173,392,555,-13,522,27.299999,48.000000,980.020020
16/06/2023,19:23:43.459,-823,-339,16,65,-188,402,547,-33,522,27.299999,48.000000,980.020020
16/06/2023,19:23:43.468,-809,-351,20,-37,-225,430,535,-25,520,27.299999,48.000000,980.020020
16/06/2023,19:23:43.477,-809,-289,20,-133,-233,443,547,-22,517,27.299999,48.000000,980.020020
16/06/2023,19:23:43.486,-784,-294,-16,-246,-156,418,547,-22,517,27.299999,48.000000,980.020020
16/06/2023,19:23:43.495,-763,-210,-126,-213,-65,408,528,-36,514,27.299999,48.000000,980.020020
16/06/2023,19:23:43.505,-761,-136,-267,114,-30,446,547,-30,529,27.299999,48.000000,980.020020
16/06/2023,19:23:43.515,-756,-82,-212,418,-18,404,534,-45,531,27.299999,48.000000,980.020020
16/06/2023,19:23:43.524,-743,-45,-24,269,5,322,556,-33,508,27.299999,48.000000,980.020020
16/06/2023,19:23:43.533,-731,5,1,26,43,258,549,-42,513,27.299999,48.000000,980.020020
16/06/2023,19:23:43.543,-720,14,-39,-133,82,214,556,-30,531,27.299999,48.000000,980.020020
16/06/2023,19:23:43.552,-715,15,-59,-316,94,146,549,-34,517,27.299999,48.000000,980.020020
16/06/2023,19:23:43.562,-707,12,-70,-501,123,77,549,-40,534,27.299999,48.000000,980.020020
16/06/2023,19:23:43.571,-717,-1,-72,-682,140,6,553,-45,525,27.299999,48.000000,980.020020
16/06/2023,19:23:43.580,-724,-8,-94,-810,154,-63,553,-45,525,27.299999,48.000000,980.020020
16/06/2023,19:23:43.589,-702,-23,-145,-845,204,-113,553,-51,534,27.299999,48.000000,980.020020
16/06/2023,19:23:43.599,-696,-30,-177,-778,253,-146,565,-42,525,27.299999,48.000000,980.020020
16/06/2023,19:23:43.608,-693,-48,-169,-724,298,-182,544,-48,531,27.299999,48.000000,980.020020
16/06/2023,19:23:43.618,-709,-66,-126,-717,314,-217,546,-31,549,27.299999,48.000000,980.020020
16/06/2023,19:23:43.627,-747,-74,-60,-791,301,-273,552,-24,517,27.299999,48.000000,980.020020
16/06/2023,19:23:43.637,-777,-75,-10,-928,304,-333,541,-42,537,27.299999,48.000000,980.020020
16/06/2023,19:23:43.646,-820,-69,10,-1045,299,-382,556,-48,537,27.299999,48.000000,980.020020
16/06/2023,19:23:43.655,-887,-79,34,-1129,282,-432,544,-45,538,27.299999,48.000000,980.020020
16/06/2023,19:23:43.665,-962,-120,92,-1255,273,-477,544,-33,546,27.299999,48.000000,980.020020
16/06/2023,19:23:43.673,-1050,-164,198,-1360,256,-489,544,-33,546,27.299999,48.000000,980.020020
16/06/2023,19:23:43.683,-1180,-228,409,-1304,128,-463,546,-43,543,27.299999,48.000000,980.020020
16/06/2023,19:23:43.693,-1331,-377,838,-1083,-193,-363,541,-33,535,27.299999,48.000000,980.020020
16/06/2023,19:23:43.702,-1372,-647,1146,-889,-496,-204,559,-48,550,27.299999,48.000000,980.020020
16/06/2023,19:23:43.712,-1185,-1008,865,-656,-478,123,547,-43,534,27.299999,48.000000,980.020020
16/06/2023,19:23:43.721,-1087,-1204,394,-551,-208,437,544,-48,526,27.299999,48.000000,980.020020
16/06/2023,19:23:43.730,-1155,-1169,221,-618,-53,524,550,-27,538,27.299999,48.000000,980.020020
16/06/2023,19:23:43.740,-1162,-963,206,-742,23,550,556,-52,522,27.299999,48.000000,980.020020
16/06/2023,19:23:43.749,-1088,-641,129,-742,23,550,544,-52,532,27.299999,48.000000,980.020020
16/06/2023,19:23:43.758,-978,-369,-46,-834,43,537,565,-64,522,27.299999,48.000000,980.020020
16/06/2023,19:23:43.767,-955,-140,-287,-744,-35,535,565,-64,522,27.299999,48.000000,980.020020
16/06/2023,19:23:43.776,-1069,43,-512,-464,-133,503,549,-60,522,27.299999,48.000000,980.020020
16/06/2023,19:23:43.786,-1228,96,-640,-158,-72,354,549,-69,522,27.299999,48.000000,980.020020
16/06/2023,19:23:43.796,-1346,36,-646,-23,42,191,546,-85,526,27.299999,48.000000,980.020020
16/06/2023,19:23:43.805,-1377,-33,-511,-35,202,64,540,-51,538,27.299999,48.000000,980.020020
16/06/2023,19:23:43.815,-1231,23,-251,-29,377,46,535,-73,538,27.299999,48.000000,980.020020
16/06/2023,19:23:43.824,-1231,23,-251,-5,500,134,541,-61,546,27.299999,48.000000,980.020020
16/06/2023,19:23:43.833,-995,215,32,-58,470,107,561,-93,540,27.299999,48.000000,980.020020
16/06/2023,19:23:43.843,-811,362,117,-147,335,-11,546,-79,535,27.299999,48.000000,980.020020
16/06/2023,19:23:43.852,-792,406,-8,-188,272,-159,546,-69,549,27.299999,48.000000,980.020020
16/06/2023,19:23:43.861,-983,413,-68,-173,283,-341,546,-69,549,27.299999,48.000000,980.020020
16/06/2023,19:23:43.870,-1212,483,284,-350,91,-559,552,-79,541,27.299999,48.000000,980.020020
16/06/2023,19:23:43.880,-1253,536,515,-841,-140,-673,537,-58,550,27.299999,48.000000,980.020020
16/06/2023,19:23:43.890,-1144,391,149,-787,-50,-676,550,-66,543,27.299999,48.000000,980.020020
16/06/2023,19:23:43.899,-1084,131,-133,-393,68,-646,561,-55,540,27.299999,48.000000,980.020020
16/06/2023,19:23:43.908,-1047,-58,-164,-273,-2,-628,549,-58,549,27.299999,48.000000,980.020020
16/06/2023,19:23:43.918,-980,-148,-206,-405,-40,-613,555,-58,558,27.299999,48.000000,980.020020
16/06/2023,19:23:43.927,-894,-199,-256,-622,42,-597,574,-61,547,27.299999,48.000000,980.020020
16/06/2023,19:23:43.936,-800,-224,-298,-801,220,-567,541,-43,555,27.299999,48.000000,980.020020
16/06/2023,19:23:43.946,-750,-244,-316,-900,402,-537,541,-51,567,27.299999,48.000000,980.020020
16/06/2023,19:23:43.954,-753,-297,-306,-961,474,-480,541,-51,567,27.299999,48.000000,980.020020
16/06/2023,19:23:43.967,-805,-357,-306,-981,458,-403,553,-49,552,27.299999,48.000000,980.020020
16/06/2023,19:23:43.974,-870,-401,-318,-918,444,-321,552,-39,556,27.299999,48.000000,980.020020
16/06/2023,19:23:43.983,-924,-435,-320,-678,512,-225,544,-57,564,27.299999,48.000000,980.020020
16/06/2023,19:23:43.993,-981,-447,-254,-282,590,-119,546,-37,573,27.299999,48.000000,980.020020
16/06/2023,19:23:44.002,-1013,-404,-118,1,525,-47,550,-39,567,27.299999,48.000000,980.020020
16/06/2023,19:23:44.011,-1005,-325,-34,32,393,-32,534,-31,573,27.299999,48.000000,980.020020
16/06/2023,19:23:44.021,-993,-260,-18,-87,353,-36,535,-45,582,27.299999,48.000000,980.020020
16/06/2023,19:23:44.030,-998,-200,3,-230,352,-36,531,-42,565,27.299999,48.000000,980.020020
16/06/2023,19:23:44.039,-992,-145,48,-368,339,-42,535,-37,579,27.299999,48.000000,980.020020
16/06/2023,19:23:44.048,-969,-123,83,-500,295,-57,535,-37,579,27.299999,48.000000,980.020020
16/06/2023,19:23:44.058,-948,-142,75,-633,290,-73,529,-34,586,27.299999,48.000000,980.020020
16/06/2023,19:23:44.068,-924,-171,41,-732,307,-86,555,-43,583,27.299999,48.000000,980.020020
16/06/2023,19:23:44.077,-892,-195,-2,-787,333,-95,526,-45,567,27.299999,48.000000,980.020020
16/06/2023,19:23:44.086,-876,-202,-38,-848,361,-96,519,-70,574,27.299999,48.000000,980.020020
16/06/2023,19:23:44.096,-878,-159,-60,-848,361,-96,525,-48,601,27.299999,48.000000,980.020020
16/06/2023,19:23:44.105,-884,-98,-73,-885,398,-93,531,-45,576,27.299999,48.000000,980.020020
16/06/2023,19:23:44.114,-901,-54,-74,-841,425,-88,531,-45,597,27.299999,48.000000,980.020020
16/06/2023,19:23:44.124,-928,-20,-74,-743,433,-81,528,-54,595,27.299999,48.000000,980.020020
16/06/2023,19:23:44.132,-956,1,-76,-639,428,-76,528,-54,595,27.299999,48.000000,980.020020
16/06/2023,19:23:44.142,-960,4,-82,-539,403,-82,523,-63,613,27.299999,48.000000,980.020020
16/06/2023,19:23:44.152,-955,-5,-95,-439,364,-93,508,-52,606,27.299999,47.599998,979.989990
16/06/2023,19:23:44.161,-954,-13,-111,-339,363,-103,519,-73,601,27.299999,47.599998,979.989990
16/06/2023,19:23:44.171,-954,-13,-111,-245,365,-108,505,-61,610,27.299999,47.599998,979.989990
16/06/2023,19:23:44.180,-942,-36,-133,-153,383,-123,496,-57,618,27.299999,47.599998,979.989990
16/06/2023,19:23:44.189,-934,-65,-160,-56,403,-130,534,-51,609,27.299999,47.599998,979.989990
16/06/2023,19:23:44.199,-936,-84,-188,74,423,-133,517,-51,607,27.299999,47.599998,979.989990
16/06/2023,19:23:44.208,-938,-90,-197,192,446,-142,504,-51,628,27.299999,47.599998,979.989990
16/06/2023,19:23:44.220,-948,-78,-180,273,458,-153,504,-51,628,27.299999,47.599998,979.989990
16/06/2023,19:23:44.227,-955,-67,-144,290,455,-175,504,-51,634,27.299999,47.599998,979.989990
16/06/2023,19:23:44.236,-961,-57,-106,264,431,-197,504,-51,634,27.299999,47.599998,979.989990
16/06/2023,19:23:44.246,-977,-51,-71,203,358,-226,498,-49,625,27.299999,47.599998,979.989990
16/06/2023,19:23:44.255,-980,-65,-52,126,274,-246,493,-55,633,27.299999,47.599998,979.989990
16/06/2023,19:23:44.264,-974,-88,-63,76,222,-256,516,-49,643,27.299999,47.599998,979.989990
16/06/2023,19:23:44.274,-983,-111,-84,62,189,-256,504,-37,631,27.299999,47.599998,979.989990
16/06/2023,19:23:44.283,-1001,-136,-94,84,174,-262,502,-43,645,27.299999,47.599998,979.989990
16/06/2023,19:23:44.292,-1031,-166,-73,104,177,-267,504,-40,625,27.299999,47.599998,979.989990
16/06/2023,19:23:44.301,-1071,-218,-20,84,173,-281,504,-40,625,27.299999,47.599998,979.989990
16/06/2023,19:23:44.311,-1110,-283,28,42,156,-297,514,-28,651,27.299999,47.599998,979.989990
16/06/2023,19:23:44.320,-1134,-340,49,13,124,-303,502,-24,624,27.299999,47.599998,979.989990
16/06/2023,19:23:44.330,-1135,-399,60,-40,75,-303,498,-45,639,27.299999,47.599998,979.989990
16/06/2023,19:23:44.339,-1121,-457,67,-168,17,-318,502,-42,642,27.299999,47.599998,979.989990
16/06/2023,19:23:44.349,-1075,-509,76,-349,-21,-324,493,-19,643,27.299999,47.599998,979.989990
16/06/2023,19:23:44.358,-1019,-558,109,-518,-31,-297,489,-24,634,27.299999,47.599998,979.989990
16/06/2023,19:23:44.367,-1012,-594,162,-617,-62,-243,492,-30,628,27.299999,47.599998,979.989990
16/06/2023,19:23:44.377,-1049,-629,190,-676,-120,-166,483,-39,643,27.299999,47.599998,979.989990
16/06/2023,19:23:44.385,-1132,-686,163,-792,-137,-61,483,-39,643,27.299999,47.599998,979.989990
16/06/2023,19:23:44.395,-1196,-705,94,-1008,-180,35,481,-37,640,27.299999,47.599998,979.989990
16/06/2023,19:23:44.405,-1154,-633,51,-1163,-224,105,516,-48,621,27.299999,47.599998,979.989990
16/06/2023,19:23:44.414,-1107,-514,96,-1182,-273,180,499,-51,636,27.299999,47.599998,979.989990
16/06/2023,19:23:44.424,-1107,-399,178,-1155,-352,242,510,-52,660,27.299999,47.599998,979.989990
16/06/2023,19:23:44.433,-1091,-306,201,-1161,-478,284,508,-57,630,27.299999,47.599998,979.989990
16/06/2023,19:23:44.442,-1067,-232,152,-1161,-478,284,505,-64,621,27.299999,47.599998,979.989990
16/06/2023,19:23:44.452,-1086,-170,79,-1205,-591,310,495,-67,618,27.299999,47.599998,979.989990
16/06/2023,19:23:44.461,-1151,-85,1,-1221,-632,328,520,-100,607,27.299999,47.599998,979.989990
16/06/2023,19:23:44.470,-1203,-4,-42,-1150,-591,326,511,-90,612,27.299999,47.599998,979.989990
16/06/2023,19:23:44.479,-1222,18,-38,-1009,-473,296,511,-90,612,27.299999,47.599998,979.989990
16/06/2023,19:23:44.489,-1178,1,-64,-869,-507,285,525,-93,607,27.299999,47.599998,979.989990
16/06/2023,19:23:44.498,-1090,-25,-127,-761,-641,264,529,-99,609,27.299999,47.599998,979.989990
16/06/2023,19:23:44.508,-1031,-46,-198,-715,-699,244,520,-129,610,27.299999,47.599998,979.989990
16/06/2023,19:23:44.517,-1031,-46,-198,-714,-765,223,529,-99,591,27.299999,47.599998,979.989990
16/06/2023,19:23:44.527,-1028,-53,-306,-724,-777,214,537,-129,588,27.299999,47.599998,979.989990
16/06/2023,19:23:44.536,-1057,-51,-417,-702,-704,186,519,-127,595,27.299999,47.599998,979.989990
16/06/2023,19:23:44.545,-1057,-54,-478,-571,-672,159,520,-132,577,27.299999,47.599998,979.989990
16/06/2023,19:23:44.555,-1039,-56,-488,-334,-682,178,535,-135,568,27.299999,47.599998,979.989990
16/06/2023,19:23:44.564,-1032,-61,-472,-66,-642,224,534,-141,556,27.299999,47.599998,979.989990
16/06/2023,19:23:44.573,-1033,-59,-425,218,-576,260,534,-141,556,27.299999,47.599998,979.989990
16/06/2023,19:23:44.582,-1036,-71,-334,497,-538,298,541,-129,567,27.299999,47.599998,979.989990
16/06/2023,19:23:44.592,-1050,-116,-238,769,-549,342,546,-138,567,27.299999,47.599998,979.989990
16/06/2023,19:23:44.602,-1057,-170,-138,950,-528,375,552,-136,567,27.299999,47.599998,979.989990
16/06/2023,19:23:44.611,-1027,-215,-48,991,-467,398,552,-147,561,27.299999,47.599998,979.989990
16/06/2023,19:23:44.620,-975,-251,20,835,-346,413,535,-132,571,27.299999,47.599998,979.989990
16/06/2023,19:23:44.630,-949,-258,58,484,-219,439,546,-136,561,27.299999,47.599998,979.989990
16/06/2023,19:23:44.639,-934,-234,40,56,-104,438,555,-150,579,27.299999,47.599998,979.989990
16/06/2023,19:23:44.648,-901,-222,-13,-385,-22,428,537,-141,558,27.299999,47.599998,979.989990
16/06/2023,19:23:44.658,-880,-209,-104,-675,7,433,535,-153,550,27.299999,47.599998,979.989990
16/06/2023,19:23:44.670,-861,-198,-198,-811,89,443,535,-153,550,27.299999,47.599998,979.989990
16/06/2023,19:23:44.677,-861,-186,-279,-811,165,464,564,-150,568,27.299999,47.599998,979.989990
16/06/2023,19:23:44.686,-874,-156,-378,-549,205,507,552,-165,564,27.299999,47.599998,979.989990
16/06/2023,19:23:44.695,-886,-157,-375,-235,204,524,528,-166,561,27.299999,47.599998,979.989990
16/06/2023,19:23:44.705,-891,-177,-249,-146,178,511,543,-168,561,27.299999,47.599998,979.989990
16/06/2023,19:23:44.714,-865,-173,-156,-214,178,489,529,-168,559,27.299999,47.599998,979.989990
16/06/2023,19:23:44.723,-840,-147,-117,-294,170,461,535,-169,571,27.299999,47.599998,979.989990
16/06/2023,19:23:44.733,-837,-107,-82,-386,169,426,538,-174,573,27.299999,47.599998,979.989990
16/06/2023,19:23:44.742,-835,-71,-49,-565,182,376,546,-178,574,27.299999,47.599998,979.989990
16/06/2023,19:23:44.751,-842,-59,-41,-822,201,322,546,-178,574,27.299999,47.599998,979.989990
16/06/2023,19:23:44.760,-848,-35,-74,-1044,200,244,532,-189,574,27.299999,47.599998,979.989990
16/06/2023,19:23:44.770,-833,14,-132,-1116,238,191,543,-190,579,27.299999,47.599998,979.989990
16/06/2023,19:23:44.780,-813,40,-170,-1136,325,162,528,-205,571,27.299999,47.599998,979.989990
16/06/2023,19:23:44.789,-794,42,-175,-1136,325,162,510,-217,565,27.299999,47.599998,979.989990
16/06/2023,19:23:44.798,-786,46,-164,-1181,379,118,528,-220,568,27.299999,47.599998,979.989990
16/06/2023,19:23:44.808,-790,51,-130,-1176,370,65,508,-210,571,27.299999,47.599998,979.989990
16/06/2023,19:23:44.820,-779,48,-98,-1161,350,16,534,-219,553,27.299999,47.599998,979.989990
16/06/2023,19:23:44.826,-782,33,-78,-1170,346,-39,525,-219,577,27.299999,47.599998,979.989990
16/06/2023,19:23:44.835,-799,5,-49,-1166,348,-86,525,-219,577,27.299999,47.599998,979.989990
16/06/2023,19:23:44.845,-799,5,-49,-1186,336,-138,532,-225,564,27.299999,47.599998,979.989990
16/06/2023,19:23:44.855,-829,3,-25,-1198,321,-174,513,-240,561,27.299999,47.599998,979.989990
16/06/2023,19:23:44.864,-829,3,-25,-1151,280,-207,505,-250,571,27.299999,47.599998,979.989990
16/06/2023,19:23:44.873,-856,13,6,-1079,236,-239,525,-238,565,27.299999,47.599998,979.989990
16/06/2023,19:23:44.883,-916,0,54,-1033,214,-278,526,-237,543,27.299999,47.599998,979.989990
16/06/2023,19:23:44.892,-999,-54,106,-1027,215,-313,496,-235,555,27.299999,47.599998,979.989990
16/06/2023,19:23:44.901,-1078,-158,199,-1041,180,-321,520,-235,541,27.299999,47.599998,979.989990
16/06/2023,19:23:44.911,-1151,-303,364,-1064,118,-289,499,-243,544,27.299999,47.599998,979.989990
16/06/2023,19:23:44.920,-1219,-449,559,-1157,76,-237,502,-243,543,27.299999,47.599998,979.989990
16/06/2023,19:23:44.929,-1250,-577,649,-1285,5,-153,502,-243,543,27.299999,47.599998,979.989990
16/06/2023,19:23:44.938,-1223,-695,594,-1272,-54,-22,514,-258,550,27.299999,47.599998,979.989990
16/06/2023,19:23:44.948,-1172,-774,503,-1152,-63,145,504,-252,546,27.299999,47.599998,979.989990
16/06/2023,19:23:44.958,-1128,-761,379,-1008,4,308,510,-255,541,27.299999,47.599998,979.989990
16/06/2023,19:23:44.967,-1081,-629,211,-816,192,392,519,-265,535,27.299999,47.599998,979.989990
16/06/2023,19:23:44.976,-1050,-448,36,-510,246,403,519,-268,532,27.299999,47.599998,979.989990
16/06/2023,19:23:44.986,-1140,-327,-155,-101,153,362,505,-271,532,27.299999,47.599998,979.989990
16/06/2023,19:23:44.995,-1289,-278,-288,217,-27,304,496,-264,538,27.299999,47.599998,979.989990
16/06/2023,19:23:45.004,-1323,-252,-337,304,-128,258,499,-258,549,27.299999,47.599998,979.989990
16/06/2023,19:23:45.013,-1244,-217,-310,237,-29,224,499,-258,549,27.299999,47.599998,979.989990
16/06/2023,19:23:45.023,-1078,-165,-250,111,150,195,507,-286,531,27.299999,47.599998,979.989990
16/06/2023,19:23:45.033,-839,-116,-321,-14,236,140,489,-274,552,27.299999,47.599998,979.989990
16/06/2023,19:23:45.042,-632,-64,-500,-169,214,64,502,-271,553,27.299999,47.599998,979.989990
16/06/2023,19:23:45.051,-578,32,-611,-322,208,-20,502,-259,547,27.299999,47.599998,979.989990
16/06/2023,19:23:45.061,-726,150,-588,-398,183,-131,499,-264,543,27.299999,47.599998,979.989990
16/06/2023,19:23:45.070,-954,208,-492,-324,88,-274,513,-286,543,27.299999,47.599998,979.989990
16/06/2023,19:23:45.079,-1094,199,-404,-100,64,-352,493,-274,556,27.299999,47.599998,979.989990
16/06/2023,19:23:45.089,-1146,183,-310,113,189,-370,493,-270,544,27.299999,47.599998,979.989990
16/06/2023,19:23:45.097,-1159,179,-117,177,333,-375,493,-270,544,27.299999,47.599998,979.989990
16/06/2023,19:23:45.107,-1171,253,309,-177,-51,-532,502,-246,559,27.299999,47.599998,979.989990
16/06/2023,19:23:45.117,-1075,286,417,-730,31,-589,516,-252,556,27.299999,47.599998,979.989990
16/06/2023,19:23:45.126,-975,187,181,-977,336,-590,504,-256,555,27.299999,47.599998,979.989990
16/06/2023,19:23:45.136,-980,95,84,-977,336,-590,508,-255,559,27.299999,47.599998,979.989990
16/06/2023,19:23:45.145,-938,30,-15,-924,281,-592,516,-255,547,27.299999,47.599998,979.989990
16/06/2023,19:23:45.154,-884,-31,-127,-776,164,-574,525,-249,562,27.299999,47.599998,979.989990
16/06/2023,19:23:45.164,-862,-81,-210,-618,146,-524,517,-265,558,27.299999,47.599998,979.989990
16/06/2023,19:23:45.173,-870,-127,-243,-477,175,-451,511,-267,558,27.299999,47.599998,979.989990
16/06/2023,19:23:45.182,-870,-174,-250,-426,213,-384,511,-267,558,27.299999,47.599998,979.989990
16/06/2023,19:23:45.191,-883,-174,-250,-443,284,-350,519,-258,547,27.299999,47.599998,979.989990
16/06/2023,19:23:45.201,-929,-252,-193,-462,369,-326,507,-243,559,27.299999,48.099998,979.979980
16/06/2023,19:23:45.211,-929,-252,-193,-518,446,-297,507,-243,559,27.299999,48.099998,979.979980
16/06/2023,19:23:45.220,-968,-275,-142,-560,550,-255,504,-237,567,27.299999,48.099998,979.979980
16/06/2023,19:23:45.229,-1014,-275,-83,-546,578,-217,528,-241,576,27.299999,48.099998,979.979980
16/06/2023,19:23:45.239,-1039,-262,-43,-529,526,-197,516,-252,552,27.299999,48.099998,979.979980
16/06/2023,19:23:45.248,-1037,-239,-27,-544,443,-181,526,-241,561,27.299999,48.099998,979.979980
16/06/2023,19:23:45.257,-1031,-213,-8,-522,292,-163,505,-247,568,27.299999,48.099998,979.979980
16/06/2023,19:23:45.266,-1009,-216,13,-559,156,-154,505,-247,568,27.299999,48.099998,979.979980
16/06/2023,19:23:45.276,-969,-251,10,-724,113,-150,516,-244,549,27.299999,48.099998,979.979980
16/06/2023,19:23:45.285,-933,-289,-38,-937,184,-144,510,-259,543,27.299999,48.099998,979.979980
16/06/2023,19:23:45.295,-898,-289,-107,-1035,329,-136,516,-240,552,27.299999,48.099998,979.979980
16/06/2023,19:23:45.304,-871,-276,-132,-1001,448,-117,519,-261,546,27.299999,48.099998,979.979980
16/06/2023,19:23:45.314,-851,-268,-128,-1002,482,-104,508,-247,559,27.299999,48.099998,979.979980
16/06/2023,19:23:45.323,-850,-213,-144,-980,496,-81,496,-262,547,27.299999,48.099998,979.979980
16/06/2023,19:23:45.332,-871,-135,-171,-863,466,-48,507,-258,546,27.299999,48.099998,979.979980
16/06/2023,19:23:45.342,-884,-77,-179,-697,438,-19,496,-265,547,27.299999,48.099998,979.979980
16/06/2023,19:23:45.351,-906,-38,-169,-497,436,3,507,-246,553,27.299999,48.099998,979.979980
16/06/2023,19:23:45.360,-934,-8,-154,-278,441,23,507,-246,553,27.299999,48.099998,979.979980
16/06/2023,19:23:45.370,-954,18,-151,-33,427,38,510,-267,582,27.299999,48.099998,979.979980
16/06/2023,19:23:45.379,-967,38,-162,242,417,47,507,-276,577,27.299999,48.099998,979.979980
16/06/2023,19:23:45.389,-965,37,-178,519,419,58,486,-267,562,27.299999,48.099998,979.979980
16/06/2023,19:23:45.398,-960,7,-200,768,441,68,474,-264,558,27.299999,48.099998,979.979980
16/06/2023,19:23:45.407,-970,-15,-211,962,461,70,490,-264,571,27.299999,48.099998,979.979980
16/06/2023,19:23:45.417,-989,-11,-217,1093,467,49,490,-258,603,27.299999,48.099998,979.979980
16/06/2023,19:23:45.426,-997,3,-213,1166,469,20,484,-271,597,27.299999,48.099998,979.979980
16/06/2023,19:23:45.435,-1010,26,-186,1185,455,-18,483,-247,603,27.299999,48.099998,979.979980
16/06/2023,19:23:45.444,-1026,44,-141,1152,405,-59,483,-247,603,27.299999,48.099998,979.979980
16/06/2023,19:23:45.454,-1024,41,-86,1042,353,-114,475,-246,618,27.299999,48.099998,979.979980
16/06/2023,19:23:45.463,-1019,23,-13,827,280,-170,487,-231,594,27.299999,48.099998,979.979980
16/06/2023,19:23:45.473,-1020,-20,28,546,186,-220,487,-232,610,27.299999,48.099998,979.979980
16/06/2023,19:23:45.482,-1021,-88,6,546,186,-220,495,-244,612,27.299999,48.099998,979.979980
16/06/2023,19:23:45.492,-1028,-152,-35,291,120,-254,486,-234,633,27.299999,48.099998,979.979980
16/06/2023,19:23:45.501,-1036,-199,-75,86,86,-271,483,-222,624,27.299999,48.099998,979.979980
16/06/2023,19:23:45.510,-1049,-241,-102,-71,79,-284,483,-216,625,27.299999,48.099998,979.979980
16/06/2023,19:23:45.520,-1070,-279,-99,-182,98,-299,468,-207,630,27.299999,48.099998,979.979980
16/06/2023,19:23:45.529,-1077,-306,-58,-239,135,-301,493,-222,621,27.299999,48.099998,979.979980
16/06/2023,19:23:45.538,-1077,-306,-58,-244,127,-294,493,-222,621,27.299999,48.099998,979.979980
16/06/2023,19:23:45.547,-1071,-339,-22,-229,72,-292,477,-220,631,27.299999,48.099998,979.979980
16/06/2023,19:23:45.557,-1063,-378,-40,-222,14,-283,469,-211,630,27.299999,48.099998,979.979980
16/06/2023,19:23:45.567,-1066,-421,-91,-228,-9,-260,483,-211,633,27.299999,48.099998,979.979980
16/06/2023,19:23:45.576,-1072,-486,-124,-301,-36,-212,490,-226,631,27.299999,48.099998,979.979980
16/06/2023,19:23:45.585,-1070,-554,-156,-509,-35,-165,496,-226,630,27.299999,48.099998,979.979980
16/06/2023,19:23:45.595,-1054,-584,-185,-745,15,-153,495,-201,622,27.299999,48.099998,979.979980
16/06/2023,19:23:45.604,-1029,-558,-183,-877,64,-140,480,-226,618,27.299999,48.099998,979.979980
16/06/2023,19:23:45.613,-1031,-493,-153,-896,99,-101,481,-220,646,27.299999,48.099998,979.979980
16/06/2023,19:23:45.623,-1050,-414,-97,-847,90,-63,501,-220,627,27.299999,48.099998,979.979980
16/06/2023,19:23:45.632,-1049,-351,-7,-766,33,-43,501,-220,627,27.299999,48.099998,979.979980
16/06/2023,19:23:45.641,-1041,-330,110,-661,-75,-18,468,-231,610,27.299999,48.099998,979.979980
16/06/2023,19:23:45.651,-1048,-341,200,-517,-224,28,495,-240,606,27.299999,48.099998,979.979980
16/06/2023,19:23:45.660,-1060,-366,190,-374,-370,93,483,-232,627,27.299999,48.099998,979.979980
16/06/2023,19:23:45.670,-1051,-364,104,-268,-471,167,498,-225,607,27.299999,48.099998,979.979980
16/06/2023,19:23:45.679,-1027,-316,35,-187,-472,241,490,-225,610,27.299999,48.099998,979.979980
16/06/2023,19:23:45.688,-1025,-246,5,-137,-436,302,487,-234,612,27.299999,48.099998,979.979980
16/06/2023,19:23:45.698,-1042,-172,2,-131,-409,329,499,-250,603,27.299999,48.099998,979.979980
16/06/2023,19:23:45.707,-1070,-115,35,-194,-406,333,469,-222,597,27.299999,48.099998,979.979980
16/06/2023,19:23:45.716,-1106,-95,81,-305,-435,311,489,-231,601,27.299999,48.099998,979.979980
16/06/2023,19:23:45.725,-1124,-107,135,-404,-498,282,489,-231,601,27.299999,48.099998,979.979980
16/06/2023,19:23:45.735,-1102,-102,181,-458,-601,238,487,-240,600,27.299999,48.099998,979.979980
16/06/2023,19:23:45.745,-1046,-101,170,-554,-664,205,484,-238,597,27.299999,48.099998,979.979980
16/06/2023,19:23:45.754,-997,-158,113,-844,-666,190,492,-231,576,27.299999,48.099998,979.979980
16/06/2023,19:23:45.763,-981,-215,-17,-1240,-709,193,495,-240,597,27.299999,48.099998,979.979980
16/06/2023,19:23:45.773,-1006,-256,-208,-1376,-784,236,501,-250,555,27.299999,48.099998,979.979980
16/06/2023,19:23:45.782,-1066,-280,-367,-1174,-826,293,511,-265,565,27.299999,48.099998,979.979980
16/06/2023,19:23:45.791,-1119,-238,-443,-832,-786,298,504,-270,535,27.299999,48.099998,979.979980
16/06/2023,19:23:45.801,-1132,-167,-414,-571,-737,289,493,-261,535,27.299999,48.099998,979.979980
16/06/2023,19:23:45.810,-1145,-99,-352,-571,-737,289,495,-255,564,27.299999,48.099998,979.979980
16/06/2023,19:23:45.819,-1178,-2,-348,-127,-857,371,495,-255,564,27.299999,48.099998,979.979980
16/06/2023,19:23:45.828,-1201,96,-334,-127,-857,371,504,-264,529,27.299999,48.099998,979.979980
16/06/2023,19:23:45.838,-1186,134,-270,187,-779,396,507,-264,522,27.299999,48.099998,979.979980
16/06/2023,19:23:45.848,-1164,137,-199,442,-722,440,514,-258,534,27.299999,48.099998,979.979980
16/06/2023,19:23:45.857,-1121,129,-124,630,-672,497,519,-274,520,27.299999,48.099998,979.979980
16/06/2023,19:23:45.866,-1035,88,-71,793,-655,498,510,-270,532,27.299999,48.099998,979.979980
16/06/2023,19:23:45.876,-945,28,-28,852,-591,472,510,-273,541,27.299999,48.099998,979.979980
16/06/2023,19:23:45.885,-896,-23,16,749,-459,443,502,-268,549,27.299999,48.099998,979.979980
16/06/2023,19:23:45.894,-883,-81,19,474,-304,427,517,-258,547,27.299999,48.099998,979.979980
16/06/2023,19:23:45.904,-883,-81,19,115,-255,386,499,-268,526,27.299999,48.099998,979.979980
16/06/2023,19:23:45.913,-851,-172,-26,-182,-238,372,499,-268,526,27.299999,48.099998,979.979980
16/06/2023,19:23:45.922,-828,-250,-93,-315,-216,398,507,-274,543,27.299999,48.099998,979.979980
16/06/2023,19:23:45.932,-825,-279,-181,-270,-139,447,510,-273,529,27.299999,48.099998,979.979980
16/06/2023,19:23:45.941,-868,-241,-261,-32,-89,511,498,-273,526,27.299999,48.099998,979.979980
16/06/2023,19:23:45.951,-919,-126,-305,346,-111,508,504,-295,534,27.299999,48.099998,979.979980
16/06/2023,19:23:45.960,-887,-26,-268,657,-88,488,505,-280,556,27.299999,48.099998,979.979980
16/06/2023,19:23:45.969,-857,7,-102,645,-37,452,502,-295,529,27.299999,48.099998,979.979980
16/06/2023,19:23:45.979,-845,41,9,301,4,380,517,-286,540,27.299999,48.099998,979.979980
16/06/2023,19:23:45.988,-791,76,-15,11,69,304,492,-310,541,27.299999,48.099998,979.979980
16/06/2023,19:23:45.998,-757,82,-38,-253,151,243,501,-292,534,27.299999,48.099998,979.979980
16/06/2023,19:23:46.006,-751,65,-54,-544,198,172,501,-292,534,27.299999,48.099998,979.979980
16/06/2023,19:23:46.016,-742,44,-82,-774,197,96,516,-277,543,27.299999,48.099998,979.979980
16/06/2023,19:23:46.026,-737,46,-122,-872,187,37,493,-295,552,27.299999,48.099998,979.979980
16/06/2023,19:23:46.035,-725,75,-158,-838,200,-16,496,-306,559,27.299999,48.099998,979.979980
16/06/2023,19:23:46.044,-709,101,-148,-791,217,-86,496,-306,538,27.299999,48.099998,979.979980
16/06/2023,19:23:46.054,-701,117,-108,-808,237,-169,496,-310,544,27.299999,48.099998,979.979980
16/06/2023,19:23:46.063,-699,124,-75,-856,268,-251,507,-303,553,27.299999,48.099998,979.979980
16/06/2023,19:23:46.072,-706,119,-57,-887,291,-318,489,-307,540,27.299999,48.099998,979.979980
16/06/2023,19:23:46.082,-733,107,-37,-899,303,-383,505,-300,534,27.299999,48.099998,979.979980
16/06/2023,19:23:46.091,-776,81,12,-949,309,-453,505,-300,534,27.299999,48.099998,979.979980
16/06/2023,19:23:46.100,-832,29,83,-1050,263,-516,504,-310,540,27.299999,48.099998,979.979980
16/06/2023,19:23:46.110,-917,-45,185,-1187,179,-550,505,-304,541,27.299999,48.099998,979.979980
16/06/2023,19:23:46.119,-1016,-131,350,-1295,43,-549,517,-315,543,27.299999,48.099998,979.979980
16/06/2023,19:23:46.129,-1132,-251,647,-1169,-200,-477,513,-307,550,27.299999,48.099998,979.979980
16/06/2023,19:23:46.138,-1298,-451,1011,-477,-600,-244,511,-309,526,27.299999,48.099998,979.979980
16/06/2023,19:23:46.147,-1371,-832,1092,522,-809,187,511,-312,529,27.299999,48.099998,979.979980
16/06/2023,19:23:46.157,-1264,-1290,825,811,-299,730,514,-303,519,27.299999,48.099998,979.979980
16/06/2023,19:23:46.166,-1144,-1370,477,811,-299,730,516,-322,555,27.299999,48.099998,979.979980
16/06/2023,19:23:46.176,-1034,-1086,218,328,347,780,517,-330,540,27.299999,48.099998,979.979980
16/06/2023,19:23:46.184,-1002,-812,70,-281,481,615,517,-330,540,27.299999,48.099998,979.979980
16/06/2023,19:23:46.194,-1022,-614,32,-517,286,576,511,-339,543,27.299999,48.099998,979.979980
16/06/2023,19:23:46.204,-994,-428,-47,-405,37,588,513,-354,544,27.299999,48.099998,979.979980
16/06/2023,19:23:46.213,-1092,-223,-275,-165,-241,617,484,-360,550,27.299999,48.099998,979.979980
16/06/2023,19:23:46.222,-1269,-76,-468,94,-492,549,507,-373,550,27.299999,48.099998,979.979980
16/06/2023,19:23:46.232,-1435,29,-460,363,-537,405,513,-381,565,27.299999,48.099998,979.979980
16/06/2023,19:23:46.241,-1529,178,-167,548,-311,262,504,-388,561,27.299999,47.400002,980.000000
16/06/2023,19:23:46.250,-1530,178,-167,462,54,114,490,-390,558,27.299999,47.400002,980.000000
16/06/2023,19:23:46.263,-1338,306,174,11,95,60,487,-394,567,27.299999,47.400002,980.000000
16/06/2023,19:23:46.269,-951,308,88,-319,60,-21,487,-394,567,27.299999,47.400002,980.000000
16/06/2023,19:23:46.278,-792,279,-107,-390,-16,-142,489,-393,586,27.299999,47.400002,980.000000
16/06/2023,19:23:46.288,-916,316,-148,-429,-142,-345,498,-397,562,27.299999,47.400002,980.000000
16/06/2023,19:23:46.297,-1051,330,-205,-358,-105,-524,495,-406,567,27.299999,47.400002,980.000000
16/06/2023,19:23:46.307,-1088,326,-174,-168,-59,-540,520,-391,562,27.299999,47.400002,980.000000
16/06/2023,19:23:46.316,-1035,293,-200,152,-57,-437,505,-408,559,27.299999,47.400002,980.000000
16/06/2023,19:23:46.325,-981,187,-285,474,55,-384,523,-403,562,27.299999,47.400002,980.000000
16/06/2023,19:23:46.335,-961,89,-293,655,90,-392,520,-402,579,27.299999,47.400002,980.000000
16/06/2023,19:23:46.344,-962,18,-251,679,74,-432,537,-390,580,27.299999,47.400002,980.000000
16/06/2023,19:23:46.354,-976,-79,-175,538,69,-470,543,-364,568,27.299999,47.400002,980.000000
16/06/2023,19:23:46.362,-966,-185,-118,193,116,-492,543,-364,568,27.299999,47.400002,980.000000
16/06/2023,19:23:46.372,-946,-246,-116,-229,194,-495,508,-381,594,27.299999,47.400002,980.000000
16/06/2023,19:23:46.382,-940,-261,-155,-591,242,-489,546,-397,583,27.299999,47.400002,980.000000
16/06/2023,19:23:46.391,-925,-257,-207,-821,299,-468,543,-400,582,27.299999,47.400002,980.000000
16/06/2023,19:23:46.400,-907,-248,-238,-926,375,-434,556,-399,570,27.299999,47.400002,980.000000
16/06/2023,19:23:46.410,-901,-233,-248,-946,435,-403,535,-411,574,27.299999,47.400002,980.000000
16/06/2023,19:23:46.419,-901,-217,-243,-912,481,-363,550,-396,570,27.299999,47.400002,980.000000
16/06/2023,19:23:46.428,-902,-211,-219,-853,529,-329,552,-385,591,27.299999,47.400002,980.000000
16/06/2023,19:23:46.438,-922,-225,-160,-623,673,-294,544,-391,585,27.299999,47.400002,980.000000
16/06/2023,19:23:46.447,-974,-238,7,-170,671,-246,540,-426,558,27.299999,47.400002,980.000000
16/06/2023,19:23:46.456,-1016,-227,169,79,533,-204,540,-426,558,27.299999,47.400002,980.000000
16/06/2023,19:23:46.466,-1028,-226,164,64,389,-188,546,-399,568,27.299999,47.400002,980.000000
16/06/2023,19:23:46.475,-1012,-243,55,-135,289,-194,523,-412,576,27.299999,47.400002,980.000000
16/06/2023,19:23:46.485,-974,-237,-80,-344,326,-203,529,-418,589,27.299999,47.400002,980.000000
16/06/2023,19:23:46.494,-961,-226,-140,-415,375,-190,541,-423,589,27.299999,47.400002,980.000000
16/06/2023,19:23:46.503,-969,-245,-111,-437,381,-181,538,-412,579,27.299999,47.400002,980.000000
16/06/2023,19:23:46.513,-958,-252,-71,-491,386,-175,543,-424,577,27.299999,47.400002,980.000000
16/06/2023,19:23:46.522,-937,-227,-36,-491,386,-175,528,-430,574,27.299999,47.400002,980.000000
16/06/2023,19:23:46.532,-924,-202,-9,-536,412,-177,523,-411,570,27.299999,47.400002,980.000000
16/06/2023,19:23:46.540,-927,-184,-8,-544,430,-173,523,-411,570,27.299999,47.400002,980.000000
16/06/2023,19:23:46.550,-923,-158,-23,-527,442,-158,523,-427,574,27.299999,47.400002,980.000000
16/06/2023,19:23:46.560,-916,-133,-47,-521,455,-155,511,-424,573,27.299999,47.400002,980.000000
16/06/2023,19:23:46.569,-922,-116,-87,-532,449,-154,511,-424,573,27.299999,47.400002,980.000000
16/06/2023,19:23:46.578,-933,-91,-111,-547,447,-156,529,-424,553,27.299999,47.400002,980.000000
16/06/2023,19:23:46.588,-933,-68,-113,-533,436,-159,516,-423,555,27.299999,47.400002,980.000000
16/06/2023,19:23:46.597,-940,-68,-113,-486,401,-161,526,-436,555,27.299999,47.400002,980.000000
16/06/2023,19:23:46.610,-938,-49,-119,-398,366,-160,510,-436,547,27.299999,47.400002,980.000000
16/06/2023,19:23:46.616,-933,-42,-133,-254,375,-159,513,-433,528,27.299999,47.400002,980.000000
16/06/2023,19:23:46.625,-937,-45,-137,-106,387,-160,513,-432,537,27.299999,47.400002,980.000000
16/06/2023,19:23:46.634,-943,-40,-124,0,391,-172,513,-432,537,27.299999,47.400002,980.000000
16/06/2023,19:23:46.643,-939,-33,-117,79,399,-184,508,-430,549,27.299999,47.400002,980.000000
16/06/2023,19:23:46.653,-935,-27,-103,172,408,-196,516,-427,556,27.299999,47.400002,980.000000
16/06/2023,19:23:46.663,-940,-31,-73,279,379,-197,519,-424,555,27.299999,47.400002,980.000000
16/06/2023,19:23:46.672,-954,-63,-71,408,332,-200,504,-409,547,27.299999,47.400002,980.000000
16/06/2023,19:23:46.681,-966,-122,-101,542,290,-200,502,-430,561,27.299999,47.400002,980.000000
16/06/2023,19:23:46.691,-976,-173,-128,645,271,-192,490,-414,558,27.299999,47.400002,980.000000
16/06/2023,19:23:46.700,-979,-203,-135,689,264,-186,504,-415,549,27.299999,47.400002,980.000000
16/06/2023,19:23:46.710,-969,-218,-119,679,253,-180,513,-403,562,27.299999,47.400002,980.000000
16/06/2023,19:23:46.719,-960,-215,-84,613,239,-173,504,-414,565,27.299999,47.400002,980.000000
16/06/2023,19:23:46.728,-957,-209,-39,506,224,-167,504,-414,565,27.299999,47.400002,980.000000
16/06/2023,19:23:46.737,-963,-201,9,389,215,-161,492,-402,562,27.299999,47.400002,980.000000
16/06/2023,19:23:46.747,-981,-185,72,282,194,-163,486,-403,568,27.299999,47.400002,980.000000
16/06/2023,19:23:46.760,-1002,-177,139,185,155,-162,483,-402,559,27.299999,47.400002,980.000000
16/06/2023,19:23:46.766,-1019,-187,169,66,90,-172,501,-385,576,27.299999,47.400002,980.000000
16/06/2023,19:23:46.775,-1036,-195,137,-101,44,-179,499,-381,565,27.299999,47.400002,980.000000
16/06/2023,19:23:46.785,-1049,-193,68,-306,34,-188,495,-385,550,27.299999,47.400002,980.000000
16/06/2023,19:23:46.794,-1064,-190,0,-499,38,-200,478,-393,544,27.299999,47.400002,980.000000
16/06/2023,19:23:46.803,-1086,-192,-49,-626,62,-212,483,-397,528,27.299999,47.400002,980.000000
16/06/2023,19:23:46.813,-1100,-210,-50,-633,81,-207,483,-391,537,27.299999,47.400002,980.000000
16/06/2023,19:23:46.821,-1118,-260,2,-549,25,-178,483,-391,537,27.299999,47.400002,980.000000
16/06/2023,19:23:46.831,-1167,-363,52,-438,-70,-132,481,-381,526,27.299999,47.400002,980.000000
16/06/2023,19:23:46.841,-1243,-518,62,-362,-107,-61,505,-385,526,27.299999,47.400002,980.000000
16/06/2023,19:23:46.850,-1264,-658,53,-390,-189,11,496,-397,522,27.299999,47.400002,980.000000
16/06/2023,19:23:46.859,-1169,-705,26,-475,-291,59,486,-402,520,27.299999,47.400002,980.000000
16/06/2023,19:23:46.869,-1068,-679,32,-475,-291,59,489,-382,519,27.299999,47.400002,980.000000
16/06/2023,19:23:46.878,-1047,-645,135,-495,-343,117,484,-388,490,27.299999,47.400002,980.000000
16/06/2023,19:23:46.888,-1054,-618,262,-434,-412,194,469,-376,484,27.299999,47.400002,980.000000
16/06/2023,19:23:46.897,-1072,-571,285,-356,-565,279,468,-369,468,27.299999,47.400002,980.000000
16/06/2023,19:23:46.909,-1090,-463,172,-325,-757,347,462,-382,469,27.299999,47.400002,980.000000
16/06/2023,19:23:46.915,-1090,-463,172,-362,-872,381,462,-382,469,27.299999,47.400002,980.000000
16/06/2023,19:23:46.924,-1077,-276,53,-474,-809,361,463,-354,474,27.299999,47.400002,980.000000
16/06/2023,19:23:46.934,-1041,-169,30,-657,-739,345,471,-372,448,27.299999,47.400002,980.000000
16/06/2023,19:23:46.944,-1035,-201,33,-685,-809,376,463,-376,444,27.299999,47.400002,980.000000
16/06/2023,19:23:46.953,-1063,-267,9,-468,-898,448,454,-358,423,27.299999,47.400002,980.000000
16/06/2023,19:23:46.963,-1098,-272,-14,-386,-878,453,441,-352,420,27.299999,47.400002,980.000000
16/06/2023,19:23:46.972,-1108,-150,-130,-579,-821,376,427,-351,394,27.299999,47.400002,980.000000
16/06/2023,19:23:46.981,-1090,-20,-347,-873,-766,312,454,-349,390,27.299999,47.400002,980.000000
16/06/2023,19:23:46.991,-1083,40,-522,-1000,-710,318,445,-360,385,27.299999,47.400002,980.000000
16/06/2023,19:23:47.000,-1074,81,-588,-824,-658,310,430,-345,376,27.299999,47.400002,980.000000
16/06/2023,19:23:47.009,-1049,100,-529,-524,-578,307,430,-345,376,27.299999,47.400002,980.000000
16/06/2023,19:23:47.018,-1030,63,-407,-252,-493,324,445,-343,388,27.299999,47.400002,980.000000
16/06/2023,19:23:47.028,-1024,-17,-291,-36,-471,329,438,-342,361,27.299999,47.400002,980.000000
16/06/2023,19:23:47.037,-1027,-133,-215,190,-454,343,432,-333,379,27.299999,47.400002,980.000000
16/06/2023,19:23:47.047,-1051,-256,-162,352,-398,360,429,-334,378,27.299999,47.400002,980.000000
16/06/2023,19:23:47.056,-1048,-365,-121,332,-295,380,430,-327,375,27.299999,47.400002,980.000000
16/06/2023,19:23:47.066,-1010,-433,-115,178,-180,408,429,-321,382,27.299999,47.400002,980.000000
16/06/2023,19:23:47.075,-979,-453,-125,-51,-57,449,424,-315,376,27.299999,47.400002,980.000000
16/06/2023,19:23:47.084,-954,-426,-159,-208,11,497,411,-307,381,27.299999,47.400002,980.000000
16/06/2023,19:23:47.094,-940,-383,-170,-304,57,528,418,-313,366,27.299999,47.400002,980.000000
16/06/2023,19:23:47.106,-924,-362,-160,-445,94,544,418,-313,366,27.299999,47.400002,980.000000
16/06/2023,19:23:47.112,-897,-323,-226,-535,150,558,414,-318,406,27.299999,47.400002,980.000000
16/06/2023,19:23:47.122,-887,-248,-324,-455,217,573,402,-316,385,27.299999,47.400002,980.000000
16/06/2023,19:23:47.131,-878,-193,-343,-282,255,575,403,-289,385,27.299999,47.400002,980.000000
16/06/2023,19:23:47.141,-870,-183,-239,-192,266,564,400,-321,387,27.299999,47.400002,980.000000
16/06/2023,19:23:47.150,-882,-162,-77,-397,282,509,393,-307,405,27.299999,47.400002,980.000000
16/06/2023,19:23:47.159,-875,-115,-9,-763,331,441,391,-309,408,27.299999,47.400002,980.000000
16/06/2023,19:23:47.169,-858,-68,-62,-1047,364,391,417,-328,388,27.299999,47.400002,980.000000
16/06/2023,19:23:47.178,-854,-54,-124,-1218,374,350,387,-310,385,27.299999,47.400002,980.000000
16/06/2023,19:23:47.187,-839,-59,-159,-1362,365,291,387,-310,385,27.299999,47.400002,980.000000
16/06/2023,19:23:47.196,-820,-56,-189,-1440,347,236,405,-286,379,27.299999,47.400002,980.000000
16/06/2023,19:23:47.206,-814,-47,-196,-1440,347,236,406,-301,397,27.299999,47.400002,980.000000
16/06/2023,19:23:47.215,-815,-16,-192,-1485,351,182,390,-304,381,27.299999,47.400002,980.000000
16/06/2023,19:23:47.225,-813,6,-179,-1509,348,124,406,-294,390,27.299999,47.400002,980.000000
16/06/2023,19:23:47.234,-820,28,-149,-1501,334,82,378,-291,379,27.299999,47.400002,980.000000
16/06/2023,19:23:47.244,-826,59,-116,-1489,329,51,393,-303,394,27.299999,47.400002,980.000000
16/06/2023,19:23:47.253,-825,79,-77,-1485,331,13,391,-295,390,27.299999,47.400002,980.000000
16/06/2023,19:23:47.262,-818,79,-47,-1490,326,-31,388,-294,379,27.299999,47.400002,980.000000
16/06/2023,19:23:47.271,-818,79,-47,-1496,330,-78,388,-294,379,27.299999,47.400002,980.000000
16/06/2023,19:23:47.280,-813,67,-26,-1475,336,-118,385,-300,403,27.299999,47.400002,980.000000
16/06/2023,19:23:47.290,-818,49,1,-1428,334,-158,405,-307,378,27.299999,48.099998,980.020020
16/06/2023,19:23:47.300,-832,33,33,-1365,336,-191,394,-295,372,27.299999,48.099998,980.020020
16/06/2023,19:23:47.309,-854,21,79,-1311,318,-227,397,-295,382,27.299999,48.099998,980.020020
16/06/2023,19:23:47.319,-890,9,135,-1300,281,-266,406,-294,372,27.299999,48.099998,980.020020
16/06/2023,19:23:47.328,-932,-15,162,-1314,246,-300,385,-274,370,27.299999,48.099998,980.020020
16/06/2023,19:23:47.337,-965,-75,195,-1284,206,-310,396,-298,373,27.299999,48.099998,980.020020
16/06/2023,19:23:47.347,-986,-170,280,-1233,115,-296,396,-282,358,27.299999,48.099998,980.020020
16/06/2023,19:23:47.355,-992,-287,368,-1155,-23,-257,396,-282,358,27.299999,48.099998,980.020020
16/06/2023,19:23:47.365,-1004,-407,409,-988,-111,-193,397,-289,363,27.299999,48.099998,980.020020
16/06/2023,19:23:47.375,-1049,-545,411,-715,-139,-104,399,-292,364,27.299999,48.099998,980.020020
16/06/2023,19:23:47.384,-1112,-715,386,-409,-124,26,388,-295,363,27.299999,48.099998,980.020020
16/06/2023,19:23:47.393,-1160,-869,334,-267,-46,219,388,-292,348,27.299999,48.099998,980.020020
16/06/2023,19:23:47.403,-1172,-907,247,-326,84,394,385,-295,363,27.299999,48.099998,980.020020
16/06/2023,19:23:47.412,-1150,-775,169,-477,196,474,382,-307,366,27.299999,48.099998,980.020020
16/06/2023,19:23:47.422,-1089,-580,90,-648,230,476,384,-295,358,27.299999,48.099998,980.020020
16/06/2023,19:23:47.431,-1003,-437,-59,-708,235,450,400,-300,370,27.299999,48.099998,980.020020
16/06/2023,19:23:47.440,-971,-360,-249,-575,214,402,376,-313,379,27.299999,48.099998,980.020020
16/06/2023,19:23:47.449,-1091,-328,-392,-365,160,310,376,-313,379,27.299999,48.099998,980.020020
16/06/2023,19:23:47.459,-1240,-351,-458,-222,43,236,387,-307,387,27.299999,48.099998,980.020020
16/06/2023,19:23:47.468,-1287,-395,-488,-142,-50,185,376,-319,384,27.299999,48.099998,980.020020
16/06/2023,19:23:47.478,-1253,-400,-494,-92,-35,190,384,-330,373,27.299999,48.099998,980.020020
16/06/2023,19:23:47.487,-1079,-328,-476,-153,160,238,408,-333,378,27.299999,48.099998,980.020020
16/06/2023,19:23:47.497,-861,-155,-434,-307,346,243,382,-343,373,27.299999,48.099998,980.020020
16/06/2023,19:23:47.506,-746,83,-374,-404,369,166,376,-334,382,27.299999,48.099998,980.020020
16/06/2023,19:23:47.515,-752,287,-327,-346,316,36,384,-349,375,27.299999,48.099998,980.020020
16/06/2023,19:23:47.525,-913,401,-280,-230,306,-146,361,-337,382,27.299999,48.099998,980.020020
16/06/2023,19:23:47.533,-1179,469,-145,-126,285,-370,361,-337,382,27.299999,48.099998,980.020020
16/06/2023,19:23:47.543,-1480,657,858,-975,-451,-686,375,-327,372,27.299999,48.099998,980.020020
16/06/2023,19:23:47.553,-1360,756,1134,-975,-451,-686,382,-321,354,27.299999,48.099998,980.020020
16/06/2023,19:23:47.562,-982,612,52,-2240,-568,-777,390,-330,357,27.299999,48.099998,980.020020
16/06/2023,19:23:47.571,-940,378,-368,-1705,-340,-640,406,-330,325,27.299999,48.099998,980.020020
16/06/2023,19:23:47.581,-999,116,-255,-438,69,-586,406,-352,345,27.299999,48.099998,980.020020
16/06/2023,19:23:47.590,-938,-34,-192,55,201,-573,408,-330,339,27.299999,48.099998,980.020020
16/06/2023,19:23:47.603,-825,-98,-215,-58,126,-580,420,-355,357,27.299999,48.099998,980.020020
16/06/2023,19:23:47.609,-777,-138,-240,-322,88,-557,406,-325,342,27.299999,48.099998,980.020020
16/06/2023,19:23:47.618,-777,-138,-240,-562,121,-544,406,-325,342,27.299999,48.099998,980.020020
16/06/2023,19:23:47.627,-785,-175,-275,-799,276,-558,417,-346,336,27.299999,48.099998,980.020020
16/06/2023,19:23:47.637,-838,-207,-320,-971,434,-533,435,-346,328,27.299999,48.099998,980.020020
16/06/2023,19:23:47.646,-909,-242,-351,-1063,494,-485,433,-349,337,27.299999,48.099998,980.020020
16/06/2023,19:23:47.656,-960,-296,-375,-1095,507,-417,414,-339,334,27.299999,48.099998,980.020020
16/06/2023,19:23:47.665,-1006,-348,-374,-992,537,-329,424,-327,318,27.299999,48.099998,980.020020
16/06/2023,19:23:47.675,-1055,-410,-287,-470,603,-240,433,-328,331,27.299999,48.099998,980.020020
16/06/2023,19:23:47.684,-1057,-446,-114,160,508,-193,424,-330,319,27.299999,48.099998,980.020020
16/06/2023,19:23:47.693,-1017,-395,35,390,377,-134,426,-340,319,27.299999,48.099998,980.020020
16/06/2023,19:23:47.703,-1000,-326,94,233,309,-119,426,-348,334,27.299999,48.099998,980.020020
16/06/2023,19:23:47.711,-991,-293,100,-75,273,-115,426,-348,334,27.299999,48.099998,980.020020
16/06/2023,19:23:47.721,-973,-246,96,-405,319,-93,433,-336,330,27.299999,48.099998,980.020020
16/06/2023,19:23:47.731,-960,-190,101,-668,390,-104,435,-324,336,27.299999,48.099998,980.020020
16/06/2023,19:23:47.740,-932,-197,83,-870,427,-133,435,-321,322,27.299999,48.099998,980.020020
16/06/2023,19:23:47.750,-893,-211,17,-961,454,-140,432,-337,321,27.299999,48.099998,980.020020
16/06/2023,19:23:47.759,-857,-207,-40,-934,471,-124,442,-337,330,27.299999,48.099998,980.020020
16/06/2023,19:23:47.768,-841,-215,-68,-870,493,-104,451,-324,319,27.299999,48.099998,980.020020
16/06/2023,19:23:47.778,-843,-217,-90,-826,501,-89,454,-315,294,27.299999,48.099998,980.020020
