F1_accX_Mean,F2_accX_STD,F3_accX_MinMax,F4_accX_RMS,F5_accY_Mean,F6_accY_STD,F7_accY_MinMax,F8_accY_RMS,F9_accZ_Mean,F10_accZ_STD,F11_accZ_MinMax,F12_accZ_RMS,F13_acc_Magnituda_Mean,F14_acc_Magnituda_STD,F15_acc_Magnituda_MinMax,F16_acc_Magnituda_RMS,class
0.0018461538461538465,0.0013570983664905655,0.007,0.0022912878474779202,0.01869230769230769,0.0013234346564680965,0.005999999999999998,0.018739099395484463,0.993798076923077,0.001340061764451319,0.006000000000000005,0.9937989804087838,0.9939773781833918,0.0013375228457037918,0.006001022152292035,0.9939782780864441,Mirovanje
0.0014615384615384618,0.0011842157167954348,0.005,0.0018810798862519207,0.018769230769230764,0.0014089737756934001,0.006999999999999999,0.018822041089351357,0.9937596153846153,0.001431078078741906,0.006000000000000005,0.9937606458065472,0.9939396353784823,0.0014248051949469303,0.006001022152292035,0.9939406566018687,Mirovanje
0.001528846153846154,0.0011598800565412487,0.005,0.0019190342122255943,0.01838461538461538,0.0014826411744151063,0.007999999999999998,0.0184443028518919,0.994048076923077,0.0015403534040821475,0.007000000000000006,0.9940492703699735,0.9942210355266137,0.0015360467000747793,0.006998719282874322,0.994222222102824,Mirovanje
0.0016826923076923082,0.0010942544272148458,0.004,0.00200719858356022,0.018028846153846152,0.0013760082371261637,0.007000000000000001,0.01808128016230301,0.9941346153846152,0.0015257891546274348,0.007000000000000006,0.9941357862678828,0.9943010588344591,0.001525607287886504,0.007029352536121469,0.99430222924266,Mirovanje
0.0019423076923076924,0.001277218455178487,0.005,0.002324617420963319,0.018326923076923074,0.001251478415655688,0.005999999999999998,0.01836960281803359,0.9943942307692306,0.0013965497955178503,0.007000000000000006,0.9943952114418398,0.9945666002558623,0.0014001242099742918,0.007029352536121469,0.9945675857840469,Mirovanje
0.001653846153846154,0.0025599325065067285,0.024,0.0030476977439473124,0.01842307692307692,0.001633144134274011,0.014000000000000002,0.01849532165378378,0.9935673076923077,0.006952814072065364,0.05900000000000005,0.993591634696298,0.993744059571002,0.006960315396710212,0.059172021333179003,0.9937684347588612,Mirovanje
0.0015576923076923077,0.002552626562359623,0.024,0.002990369156526948,0.01831730769230769,0.0017279624677465737,0.014000000000000002,0.018398630801899782,0.9936153846153846,0.006996300797712394,0.05900000000000005,0.9936400156843677,0.9937901607233329,0.007003509248938695,0.059172021333179003,0.9938148382331126,Mirovanje
0.0015769230769230773,0.0014655814525582809,0.006,0.002152815687562543,0.018701923076923074,0.0014992293385161111,0.006999999999999999,0.01876191928840478,0.9949134615384616,0.0028457477620906254,0.02400000000000002,0.9949175313717057,0.9950926745934654,0.0028473552574223297,0.02399614613530554,0.9950967482921138,Mirovanje
0.0015,0.0014411533842457842,0.006,0.002080125735844609,0.018451923076923074,0.0015496886020467497,0.007999999999999998,0.018516884187141206,0.994625,0.0028561253339230296,0.02400000000000002,0.9946291007591337,0.994799513042378,0.002859868991343098,0.02399614613530554,0.9948036238373883,Mirovanje
0.0016153846153846155,0.0013749663793630367,0.005,0.0021213203435596424,0.018249999999999995,0.0014260623570355702,0.007999999999999998,0.018305631752172716,0.9940769230769232,0.001523484793872183,0.008000000000000007,0.9940780904939007,0.9942477107911061,0.0015283129559272998,0.008098854348700057,0.9942488854174522,Mirovanje
0.0014903846153846156,0.0013727792717673454,0.006,0.0020262697823264383,0.01863461538461538,0.0013305413321976853,0.006000000000000002,0.018682056384917343,0.994173076923077,0.0015028326311202348,0.008000000000000007,0.994174212794023,0.9943506536343519,0.0015059885631327128,0.007938298440260505,0.9943517940772347,Mirovanje
0.0017596153846153846,0.0015596794068240452,0.008,0.0023513498578149007,0.018624999999999996,0.0013022724221676745,0.006000000000000002,0.018670472368462948,0.9942596153846153,0.0013300895885651727,0.007000000000000006,0.9942605050604579,0.9944376747642967,0.0013335355530483767,0.006994443931259919,0.9944385688958832,Mirovanje
0.0019615384615384616,0.0014670947017508193,0.007,0.0024494897427831783,0.01844230769230769,0.001459892798204211,0.007000000000000001,0.0185,0.9942884615384615,0.0011983408154858008,0.006000000000000005,0.9942891836730553,0.9944635636700003,0.0012046999601973572,0.006048266227141386,0.9944642933606167,Mirovanje
0.0020192307692307693,0.0013585963431676973,0.007,0.0024337372337779038,0.01863461538461538,0.0014679767100679,0.007000000000000001,0.018692347261749828,0.993951923076923,0.001361417584812496,0.008000000000000007,0.9939528554444389,0.9941306461540693,0.0013653375126910353,0.008017185993900777,0.9941315837298556,Mirovanje
0.0018653846153846155,0.0014810189599607812,0.007,0.002381822185444775,0.018749999999999996,0.0014461487315785173,0.006999999999999999,0.01880568653768977,0.994028846153846,0.0012668611329492738,0.006000000000000005,0.9940296534425302,0.9942095664036468,0.0012715807588774657,0.0060767822638020386,0.9942103795707194,Mirovanje
0.0017884615384615385,0.0015791494602321464,0.007,0.002385855756810896,0.018596153846153842,0.0014379421110715478,0.006999999999999999,0.018651665217470942,0.9944711538461539,0.0015251527714728664,0.01100000000000001,0.9944723233570036,0.9946489057023526,0.0015274918219583755,0.010984912242321898,0.9946500785935493,Mirovanje
0.0018365384615384615,0.0014485442090056441,0.006,0.0023390497741933255,0.01846153846153846,0.001285444228236031,0.006000000000000002,0.018506235955233288,0.9942884615384615,0.0016965637041876352,0.01100000000000001,0.9942899089686684,0.9944634199920233,0.0016974385905577872,0.010984912242321898,0.9944648686605274,Mirovanje
0.00175,0.0012916149700159221,0.005,0.0021750331562459526,0.01819230769230769,0.001474637654821601,0.006999999999999999,0.01825197565702451,0.9942788461538462,0.0013619607667541376,0.007000000000000006,0.9942797789586962,0.9944487284739852,0.001367723379599595,0.00700866513092091,0.9944496690284377,Mirovanje
0.0018846153846153848,0.0013251102443809397,0.005,0.0023038429433649135,0.018125,0.0015484949268439782,0.006999999999999999,0.018191026951177372,0.9944807692307691,0.001192772862112363,0.006000000000000005,0.994481484531976,0.9946497864336382,0.0012027378297558202,0.006083507360599927,0.9946505136130828,Mirovanje
0.0017115384615384618,0.0013131954342445417,0.006,0.0021572774865200243,0.018317307692307692,0.0013954901473959929,0.006000000000000002,0.018370387961231353,0.9942980769230767,0.001150917758308792,0.0050000000000000044,0.9942987430267702,0.9944701013809125,0.0011544886543300688,0.005041801239136556,0.9944707715084519,Mirovanje
0.0017211538461538466,0.0012744284599020394,0.006,0.002141620522300452,0.01838461538461538,0.0013888823142513683,0.007999999999999998,0.018437002926806646,0.994326923076923,0.0010691685095321271,0.0050000000000000044,0.9943274978984151,0.994500147422922,0.0010674587085394472,0.005041801239136556,0.9945007203075862,Mirovanje
0.0019134615384615386,0.0012098202101256215,0.005,0.0022638462845343543,0.018278846153846152,0.0014508401463212666,0.007999999999999998,0.018336334253229402,0.9943653846153845,0.0011933928064692474,0.006000000000000005,0.9943661007434295,0.994537004620638,0.0011978738446866888,0.006094479550726284,0.9945377260122104,Mirovanje
0.001721153846153846,0.0012968655316186763,0.005,0.0021550477417520866,0.018307692307692306,0.0013663322821793546,0.006000000000000002,0.01835860728754939,0.9939615384615385,0.0012703957357625968,0.006000000000000005,0.9939623503162248,0.9941334032096608,0.0012701028459522745,0.006094479550726284,0.9941342145497566,Mirovanje
0.0017692307692307695,0.0013025918632212385,0.004,0.002197025961822727,0.01844230769230769,0.0013288725924120435,0.006000000000000002,0.01849012210302072,0.9937788461538462,0.0011763431829290598,0.0050000000000000044,0.9937795423765543,0.9939532802506276,0.0011692149642435314,0.0050544230408564594,0.9939539679404752,Mirovanje
0.00175,0.0013569621047937021,0.007,0.0022144629493053513,0.018471153846153845,0.001379497753986732,0.006000000000000002,0.018522595348966043,0.9939711538461538,0.0012283253982653258,0.0050000000000000044,0.9939719128132033,0.994146193570847,0.0012246039155777906,0.005050892788510342,0.9941469478131257,Mirovanje
0.0015,0.0013445044840729643,0.007,0.002014371442334384,0.01829807692307692,0.0014602410739610226,0.007000000000000001,0.018356250245540974,0.9943461538461539,0.0012917581249035908,0.006000000000000005,0.9943469929092621,0.9945176094548557,0.0012947614746590523,0.0060162561395138425,0.9945184522788287,Mirovanje
0.001557692307692308,0.001459892798204211,0.007,0.002134875244058141,0.018221153846153845,0.0014607475086487974,0.009,0.018279612434874838,0.9945961538461537,0.0012366147242902146,0.007000000000000006,0.9945969226081178,0.9947664007323229,0.0012443306131118945,0.006977282137692886,0.9947671789844171,Mirovanje
0.001528846153846154,0.0014002522490418451,0.007,0.0020731803884556027,0.018326923076923074,0.001274319635156101,0.008,0.01837117307087384,0.9944134615384616,0.0013200420806453706,0.007000000000000006,0.9944143376882696,0.9945853027711091,0.001322342097980418,0.006994437303017409,0.9945861818248447,Mirovanje
0.0013653846153846155,0.001160716724101737,0.005,0.0017920765780341146,0.018269230769230767,0.0012802551520840952,0.006000000000000002,0.018314034131065884,0.9941249999999999,0.0014256408815255426,0.007000000000000006,0.9941260222310464,0.9942952967082519,0.0014235186643564793,0.006996959627911692,0.9942963157236068,Mirovanje
0.0015192307692307695,0.0013227358683859725,0.006,0.002014371442334384,0.01846153846153846,0.0014995068222783021,0.006999999999999999,0.01852233578890425,0.9939999999999999,0.0013445044840729654,0.006000000000000005,0.9940009093015496,0.9941746043093975,0.0013410644820794643,0.006037719956028864,0.9941755088050059,Mirovanje
0.0016250000000000004,0.0014154878202339888,0.006,0.002155047741752087,0.01850961538461538,0.001454404400352018,0.006999999999999999,0.018566667817520567,0.993875,0.0012761683937595274,0.007000000000000006,0.9938758193208893,0.9940507459138541,0.00127442673191438,0.006979550447827276,0.994051562855461,Mirovanje
0.0016346153846153847,0.0014009453697393353,0.006,0.002152815687562543,0.01829807692307692,0.0014336599726433614,0.006000000000000002,0.018354154842977654,0.9939807692307692,0.0013154464672817466,0.007000000000000006,0.9939816396694657,0.994152540674139,0.0013173786619224016,0.006997205940313611,0.9941534135209639,Mirovanje
0.0017403846153846154,0.0012784846221187342,0.006,0.002159504929019968,0.018182692307692306,0.0016158138166078506,0.006000000000000002,0.01825434616320601,0.9940096153846155,0.0013408894314803233,0.006000000000000005,0.9940105197942013,0.9941795632390293,0.0013394456972634675,0.006061163357064303,0.9941804655478417,Mirovanje
0.0018653846153846155,0.0012173244013921895,0.005,0.0022274511131646552,0.01806730769230769,0.0016008676918671028,0.006000000000000002,0.01813809208862345,0.9939519230769231,0.0013543363950680497,0.007000000000000006,0.9939528457705549,0.9941199057191744,0.0013507743562665797,0.006996317261349305,0.9941208234105458,Mirovanje
0.0018269230769230771,0.0013115046239713473,0.005,0.002248931370160572,0.018288461538461535,0.0014522732639335113,0.006000000000000002,0.01834603289752101,0.9937788461538463,0.0013654861825712124,0.007000000000000006,0.9937797842658024,0.9939507177033614,0.0013656528629841797,0.00698219261217059,0.9939516558821003,Mirovanje
0.0017211538461538464,0.0013042587842645955,0.005,0.002159504929019968,0.018519230769230764,0.0015315952545201486,0.01,0.018582456573545174,0.993625,0.0012495191382780337,0.006000000000000005,0.993625785657295,0.9938010934538273,0.0012488902674783302,0.005980351705375142,0.9938018781814226,Mirovanje
0.001951923076923077,0.001396284958878571,0.005,0.0023999198704572166,0.018432692307692306,0.001459481092433745,0.01,0.01849038211528444,0.9940384615384615,0.0012551668363139027,0.0050000000000000044,0.9940392539842369,0.9942133150738848,0.0012555626183680887,0.005069695626075399,0.9942141078800342,Mirovanje
0.0019615384615384616,0.0014539275516489078,0.007,0.0024416261920159814,0.018365384615384613,0.0012638288308190581,0.006999999999999999,0.01840881895681022,0.994423076923077,0.0013636229154796809,0.006000000000000005,0.9944240118704974,0.9945964523167924,0.0013632964871916151,0.006018156542996089,0.9945973866537462,Mirovanje
0.0017788461538461539,0.001337022601854517,0.007,0.0022252916835603996,0.01854807692307692,0.0013436446394637846,0.006999999999999999,0.018596680845288992,0.9941346153846153,0.0014810189599607823,0.007000000000000006,0.9941357185631531,0.9943110374829349,0.0014751692191120262,0.007013973355882719,0.9943121317698057,Mirovanje
0.0018269230769230771,0.0014507445548109458,0.007,0.002332875412941654,0.01842307692307692,0.0012911854101226553,0.006000000000000002,0.01846826800425322,0.9938461538461537,0.0013428530961612389,0.006000000000000005,0.9938470610557897,0.994020480681074,0.001335659599834519,0.006012633871761319,0.9940213780397281,Mirovanje
0.0016538461538461542,0.0014595127662315596,0.007,0.002205761685990718,0.018346153846153842,0.0013428530961612376,0.008,0.018395233496333104,0.9940192307692308,0.0012933317828738762,0.006000000000000005,0.9940200721545585,0.9941918776750547,0.0012900430624238142,0.006028410894684533,0.9941927146414592,Mirovanje
0.0014423076923076926,0.0012544300197923411,0.004,0.0019115036368906428,0.01825961538461538,0.0013797658128192813,0.008,0.018311671351690092,0.9939230769230769,0.0013059943727961277,0.007000000000000006,0.9939239349475081,0.9940935825394145,0.0013071990426113454,0.007057501828538593,0.9940944420000468,Mirovanje
0.0018365384615384615,0.0015573064574343947,0.006,0.00240791962554337,0.01829807692307692,0.001537229073642595,0.006999999999999999,0.01836253501855592,0.9936057692307692,0.001761873288635453,0.010000000000000009,0.9936073313166291,0.9937783482702179,0.00176185263349708,0.010040552540390157,0.993779910048188,Mirovanje
0.002173076923076923,0.0015655074606872547,0.006,0.0026782600551621054,0.018432692307692306,0.0016158138166078504,0.006999999999999999,0.018503378069963335,0.9936826923076924,0.0018358838946284752,0.010000000000000009,0.9936843882549118,0.9938585566166153,0.001838743701444632,0.010040552540390157,0.9938602575505581,Mirovanje
0.0018076923076923077,0.0014940711230426948,0.008,0.002345207879911715,0.017894230769230766,0.0013722403721845723,0.007999999999999998,0.017946769582895372,0.9940673076923076,0.0014227845333719263,0.006000000000000005,0.9940683258903592,0.9942320612978082,0.001425259426958517,0.006054367461321153,0.9942330828718803,Mirovanje
0.0015673076923076923,0.0013499602777412713,0.007,0.0020685372014653627,0.017932692307692306,0.0012189562297067224,0.007000000000000001,0.01797407320816035,0.9942692307692307,0.001272722469828793,0.007000000000000006,0.9942700453483062,0.9944338301803239,0.0012753915712363098,0.0070476519375465285,0.9944346480441886,Mirovanje
0.0017211538461538464,0.001281951117882056,0.006,0.0021461055963696734,0.018163461538461538,0.001428491518263752,0.007999999999999998,0.018219547828552802,0.9942211538461538,0.0011598800565412496,0.007000000000000006,0.9942218304165941,0.9943903914816179,0.0011640868805527194,0.007051687728244271,0.9943910728527438,Mirovanje
0.001951923076923077,0.0015403534040821462,0.007,0.0024865020224589213,0.018249999999999995,0.0015111763120674723,0.007999999999999998,0.018312458978688634,0.9942596153846153,0.0011848011218026655,0.006000000000000005,0.9942603213135186,0.9944313469169808,0.0011881302516499436,0.00605939075699613,0.9944320566959893,Mirovanje
0.0020865384615384617,0.0015696066197708274,0.007,0.0026109974516088084,0.01821153846153846,0.0015233634151687366,0.009,0.018275140744485916,0.9940673076923076,0.0012110423282074255,0.006000000000000005,0.9940680453802716,0.9942387033639383,0.001215588858053565,0.006047283434202244,0.9942394464730702,Mirovanje
0.0019423076923076924,0.0013855498983111575,0.006,0.002385855756810896,0.01821153846153846,0.0016908866411253281,0.009,0.01828986688768485,0.9937307692307691,0.0011113987135999925,0.0050000000000000044,0.9937313907304512,0.9939019297987612,0.0011146317045876602,0.005079697991398069,0.993902554811858,Mirovanje
0.0018076923076923077,0.001217476291641878,0.005,0.0021794494717703367,0.018249999999999995,0.0015796177726565082,0.008,0.01831823387523187,0.9938269230769231,0.0011884241965754146,0.006000000000000005,0.9938276336390608,0.9939981203763393,0.0011873353476385402,0.006025343105448444,0.9939988295148657,Mirovanje
0.0018461538461538461,0.0012692307692307692,0.006,0.0022403639814170305,0.01796153846153846,0.0013862170223800075,0.006000000000000002,0.018014951055677658,0.9939423076923076,0.0013216170389462824,0.007000000000000006,0.9939431863503605,0.9941080830902396,0.0013170114899914475,0.006965110871048119,0.994108955489596,Mirovanje
0.0018942307692307694,0.0013722403721845727,0.007,0.0023390497741933255,0.01823076923076923,0.0014559610177498229,0.007000000000000001,0.01828881541354631,0.9941634615384616,0.0012718140959568577,0.007000000000000006,0.994164275041721,0.9943344237079178,0.001269457266132423,0.006965110871048119,0.9943352340595739,Mirovanje
0.0018750000000000001,0.0013565191597501418,0.007,0.002314253493195858,0.018576923076923078,0.0015297832154885648,0.007999999999999998,0.01863980438986171,0.994201923076923,0.0011298383792886538,0.0050000000000000044,0.9942025650664029,0.9943793354374056,0.0011294762511335984,0.005071053794448721,0.9943799769009523,Mirovanje
0.0018365384615384615,0.0013665690961947574,0.006,0.002289188636915843,0.01850961538461538,0.0013867171548140671,0.005999999999999998,0.018561488252665685,0.9938269230769231,0.0013188158127384571,0.008000000000000007,0.9938277981157964,0.994002878509025,0.0013187320553181875,0.007997872372092374,0.9940037532818784,Mirovanje
0.0016923076923076922,0.0014483207987509793,0.007,0.0022274511131646552,0.018355769230769228,0.00126276763523291,0.006999999999999999,0.01839915340861764,0.9938365384615384,0.0014942876932034124,0.008000000000000007,0.9938376618326169,0.9940093339567102,0.001494144730610771,0.00797230045864672,0.9940104569176013,Mirovanje
0.0015961538461538463,0.0014245055199371328,0.006,0.002139374459257443,0.018144230769230767,0.0014898261981156446,0.007999999999999998,0.018205292975057897,0.9939423076923076,0.0013360887455909048,0.006000000000000005,0.9939432056983165,0.9941113187154129,0.0013385705559828863,0.0060271902651917175,0.9941122199074061,Mirovanje
0.0016346153846153845,0.0016586468784692,0.011,0.0023287500774185543,0.018201923076923074,0.0019873629981436536,0.011000000000000001,0.018310095996051344,0.9939423076923076,0.002156505912692868,0.018000000000000016,0.9939446471199799,0.9941136586681814,0.0021628407550885933,0.01802224840020017,0.9941160114547846,Mirovanje
0.0017211538461538464,0.0016609585437402311,0.011,0.0023918933601132487,0.018307692307692306,0.002274765089634038,0.011000000000000001,0.01844847294076542,0.994076923076923,0.0027759000885794072,0.018000000000000016,0.9940807988364851,0.9942509482792052,0.0027845590276065362,0.01802224840020017,0.9942548475733356,Mirovanje
0.0017403846153846154,0.0013155518899488263,0.006,0.0021816542770602735,0.017971153846153845,0.002068336059071262,0.009,0.01808978674875369,0.9939615384615383,0.002174693068188799,0.01100000000000001,0.9939639174692254,0.9941285191788624,0.0021809598830448843,0.0110405005072588,0.9941309115155655,Mirovanje
0.0015961538461538465,0.001267335414661185,0.007,0.0020380986614602723,0.01769230769230769,0.0015997411033142632,0.009,0.017764484880708562,0.9940192307692306,0.001460905733485286,0.008000000000000007,0.9940203043120474,0.9941800499870215,0.0014575190048690158,0.007926749616218642,0.9941811183853001,Mirovanje
0.002,0.001474135992056677,0.007,0.002484567753770648,0.017990384615384616,0.0014773624646886778,0.006999999999999999,0.01805094286904533,0.9940673076923078,0.0014227845333719263,0.008000000000000007,0.9940683258903592,0.9942342953783491,0.0014184665537020254,0.00794189815636026,0.9942353072355891,Mirovanje
0.002259615384615385,0.001454404400352018,0.005,0.002687220468468087,0.018240384615384613,0.0015410735038857482,0.006999999999999999,0.018305369115686754,0.9939326923076923,0.001339233585911412,0.007000000000000006,0.9939335945547948,0.9941048789921637,0.0013370268878562688,0.006926482524604816,0.9941057781126328,Mirovanje
0.001980769230769231,0.0013007451210066041,0.006,0.002369680277038364,0.018269230769230767,0.001462550257063965,0.006999999999999999,0.0183276797809719,0.9939903846153846,0.001333699253289457,0.006000000000000005,0.9939912793689583,0.9941621650400907,0.0013312757442157355,0.006005127695267509,0.9941630563908054,Mirovanje
0.001605769230769231,0.001220169197210979,0.006,0.002016756726109446,0.01849038461538461,0.001255719164981476,0.005999999999999998,0.018532974770558392,0.9938173076923077,0.001253950856883671,0.006000000000000005,0.9938180987794186,0.9939921425897382,0.0012539509315154297,0.006005127695267509,0.9939929335377978,Mirovanje
0.0016346153846153847,0.001233020777070034,0.005,0.0020475125621855638,0.018788461538461535,0.0012608992282911928,0.005999999999999998,0.018830723667617077,0.993576923076923,0.0012144348772189968,0.006000000000000005,0.9935776652698453,0.9937574595045616,0.0012153450764591227,0.005999016463108631,0.9937582026753868,Mirovanje
0.0017692307692307693,0.0013245519505940434,0.006,0.0022101165997782525,0.018586538461538456,0.0012980056960515422,0.005999999999999998,0.01863180696468356,0.9934038461538461,0.0012748999264590181,0.006000000000000005,0.9934046642346093,0.9935810132003542,0.0012751380271031666,0.006016672638518683,0.9935818314407882,Mirovanje
0.0015096153846153846,0.0012709414462371245,0.005,0.001973380543440816,0.018317307692307692,0.0014023635479824977,0.008,0.018370911371387775,0.9936057692307692,0.0013474924663038252,0.007000000000000006,0.9936066829407978,0.9937775403363821,0.0013510451399925067,0.0070580175166474746,0.9937784587120009,Mirovanje
0.0015673076923076927,0.0011160061265764688,0.005,0.0019240382212739632,0.018249999999999995,0.0015238488719736562,0.008,0.018313509095326745,0.9938461538461539,0.0013781902205514563,0.007000000000000006,0.9938471094303575,0.994016732038099,0.0013783649141428645,0.0070580175166474746,0.9940176877005451,Mirovanje
0.0017307692307692306,0.0013172725991956698,0.007,0.0021750331562459526,0.018076923076923074,0.0015297832154885648,0.007000000000000001,0.0181415375482726,0.9938461538461538,0.001392073928527221,0.006000000000000005,0.9938471287801838,0.9940141067025926,0.0013846352257698557,0.005997387799143383,0.9940150710821549,Mirovanje
0.001798076923076923,0.0014436852395885737,0.007,0.0023059288133651682,0.018192307692307688,0.001647124085027989,0.007999999999999998,0.018266720475309105,0.9939230769230769,0.0012986110012410883,0.0050000000000000044,0.9939239252733425,0.9940935910080301,0.001300742920060403,0.00507598572945267,0.9940944420000469,Mirovanje
0.0016730769230769232,0.0013188158127384558,0.005,0.0021303665267886503,0.018471153846153842,0.0014541501005030052,0.006999999999999999,0.018528304750383313,0.993798076923077,0.0011797963293290192,0.0050000000000000044,0.9937987772257442,0.9939730551902424,0.001188153871163316,0.00507598572945267,0.9939737653247425,Mirovanje
0.001711538461538462,0.0012532502123177782,0.005,0.0021213203435596424,0.018701923076923074,0.001207984714723625,0.005000000000000001,0.01874089522531285,0.9939038461538462,0.0013482127112562404,0.008000000000000007,0.9939047605665862,0.9940827762630371,0.0013520976080684051,0.008011146699104188,0.9940836957876179,Mirovanje
0.0017788461538461539,0.0012931530545473753,0.005,0.002199213145999828,0.01842307692307692,0.0012533977489846402,0.005000000000000001,0.01846566460300764,0.9940192307692308,0.001407266644344286,0.008000000000000007,0.9940202269262237,0.9941931605462714,0.0014100954470499865,0.008011146699104188,0.9941941605371427,Mirovanje
0.0017788461538461539,0.0013225611136761448,0.007,0.002216632928218278,0.018567307692307692,0.0014057876458859083,0.006999999999999999,0.018620449883022534,0.9936346153846153,0.0012638288308190592,0.007000000000000006,0.9936354191321111,0.9938115437048373,0.0012634746690236556,0.007000442312767752,0.9938123468589182,Mirovanje
0.001903846153846154,0.0012209645522576905,0.007,0.002261721604306024,0.018490384615384617,0.001467567272129238,0.008,0.018548533012696097,0.9937307692307691,0.001367414525740861,0.007000000000000006,0.9937317100397176,0.9939064388945495,0.001365915061501082,0.007000442312767752,0.9939073774753863,Mirovanje
0.001903846153846154,0.0012443660014489829,0.005,0.0022744399141496185,0.018374999999999996,0.001388049960306794,0.006999999999999999,0.01842735216172708,0.9936923076923077,0.0013733516208736263,0.007000000000000006,0.9936932567254033,0.9938657617289249,0.0013698573420529287,0.006980153638259101,0.9938667057740458,Mirovanje
0.001903846153846154,0.0012824198188253237,0.005,0.00229548050944258,0.01890384615384615,0.0013624019426198859,0.006999999999999999,0.01895287678590083,0.993576923076923,0.001190445195426321,0.006000000000000005,0.9935776362372338,0.9937603265883508,0.0011888225327394456,0.005982828373595983,0.9937610376745508,Mirovanje
0.001798076923076923,0.001318360051295575,0.006,0.002229608451310195,0.018788461538461535,0.0013493094880992116,0.005999999999999998,0.018836850136817542,0.9939230769230769,0.0013494465225268345,0.006000000000000005,0.9939239929924992,0.9941040607124193,0.0013484799425627018,0.0060200638165641696,0.994104975303452,Mirovanje
0.0016923076923076922,0.0013378867023789297,0.006,0.0021572774865200243,0.01850961538461538,0.0014870931396241327,0.009,0.018569257058167615,0.9938846153846155,0.001463055892431558,0.006000000000000005,0.993885692235666,0.9940604119830524,0.001462091891619063,0.006035197631134581,0.9940614872253201,Mirovanje
0.0015961538461538465,0.001274899926459017,0.005,0.0020428110345983848,0.01819230769230769,0.0016645450006448003,0.01,0.01826829957140974,0.9939615384615383,0.0013722740596085606,0.0050000000000000044,0.9939624857492978,0.994131497562061,0.0013756736861111043,0.0051277552253622405,0.9941324493864371,Mirovanje
0.0016442307692307696,0.0013581539311107987,0.005,0.002132622076945872,0.01808653846153846,0.0014352068795063131,0.009,0.01814339252476483,0.993875,0.0013206022810124886,0.0050000000000000044,0.9938758773686905,0.9940428756691932,0.0013235240595783646,0.0051277552253622405,0.9940437567756338,Mirovanje
0.0018653846153846158,0.001366196941454722,0.006,0.002312175133106021,0.01825961538461538,0.0013300895885651714,0.006999999999999999,0.01830799531100258,0.9938365384615383,0.0011776000441174107,0.0050000000000000044,0.9938372361322938,0.994007846708599,0.0011753514219594266,0.0050774666693461645,0.9940085415977222,Mirovanje
0.002057692307692308,0.0012847247765491604,0.007,0.00242582262018792,0.018394230769230767,0.0014898261981156446,0.006999999999999999,0.018454465792655923,0.9937115384615385,0.001260899228291194,0.006000000000000005,0.993712338425191,0.9938858440931343,0.001261892553491148,0.006071239976580767,0.9938866451771743,Mirovanje
0.0020384615384615385,0.0012703957357625957,0.007,0.002401922307076307,0.018788461538461535,0.001438970498194649,0.008,0.018843484897357047,0.9935576923076924,0.0012155002379277305,0.006000000000000005,0.9935584358177506,0.9937392646800804,0.0012187582016657066,0.00605417571958744,0.9937400120446301,Mirovanje
0.0019903846153846157,0.0013832458504691916,0.008,0.0024238399287081643,0.018999999999999996,0.001386750490563073,0.006999999999999999,0.019050540069065678,0.9939326923076922,0.001162428021567549,0.006000000000000005,0.9939333720511264,0.9941181987775759,0.0011631909018974666,0.006041551726911676,0.9941188792864997,Mirovanje
0.0018173076923076923,0.0014984891306099664,0.008,0.002355435612169631,0.018730769230769224,0.0014426922564239274,0.006999999999999999,0.018786247015385404,0.9938461538461538,0.0011829658845561317,0.006000000000000005,0.9938468578825798,0.9940264810112693,0.0011845358904990114,0.006024487177621385,0.9940271867896385,Mirovanje
0.0015384615384615385,0.0014068723967824526,0.006,0.0020847431127488697,0.01838461538461538,0.0015147206667319398,0.006999999999999999,0.018446909267908856,0.9938557692307691,0.0011130197077421798,0.0050000000000000044,0.9938563924663129,0.9940291320538687,0.0011171793817522128,0.005065429036686608,0.9940297598470271,Mirovanje
0.0015576923076923075,0.001433305238016468,0.007,0.002116782754741079,0.018105769230769227,0.0013581539311107985,0.006999999999999999,0.018156636845475034,0.9939615384615383,0.0011596010332062577,0.0050000000000000044,0.9939622148831335,0.9941296084663145,0.0011620743377209776,0.005065429036686608,0.9941302876616093,Mirovanje
0.0016346153846153847,0.0013732169719570925,0.007,0.002134875244058141,0.018355769230769228,0.0013149895380599422,0.005999999999999998,0.01840281124009214,0.9940096153846153,0.0012897166676600872,0.006000000000000005,0.9940104520809394,0.9941822528452824,0.0012837941729822906,0.005994977777227906,0.9941830817309254,Mirovanje
0.001653846153846154,0.001238557091392663,0.005,0.0020662116951635835,0.018499999999999996,0.0015063966175050876,0.006999999999999999,0.01856122923648191,0.994048076923077,0.001340061764451319,0.006000000000000005,0.9940489801815602,0.9942235109658925,0.0013318048626423655,0.005994977777227906,0.9942244029702443,Mirovanje
0.001605769230769231,0.0011962945131238282,0.004,0.00200240240326848,0.01844230769230769,0.0014598927982042108,0.006999999999999999,0.0185,0.993903846153846,0.0013694414271830724,0.006000000000000005,0.993904789589642,0.9940780280313273,0.0013654925715526798,0.0060311863334500115,0.9940789658697218,Mirovanje
0.0015865384615384617,0.001252770598153402,0.005,0.0020215188501566,0.018403846153846153,0.0013764449105271072,0.005999999999999998,0.018455247325521104,0.9935480769230769,0.0014798636091799648,0.006000000000000005,0.9935491790313382,0.9937215178445107,0.0014828415139791443,0.006047833796376301,0.9937226241996072,Mirovanje
0.001557692307692308,0.0013504053741585204,0.005,0.00206155281280883,0.018499999999999996,0.001441153384245784,0.005999999999999998,0.01855604815355153,0.9934615384615384,0.001379263159772394,0.0050000000000000044,0.9934624959047174,0.9936369521981636,0.00138380585775785,0.005113764907121898,0.993637915788396,Mirovanje
0.0015000000000000002,0.0012325707968432358,0.005,0.001941450686788302,0.01899038461538461,0.001437781359138583,0.005999999999999998,0.01904473478620595,0.9938365384615385,0.0013309234570480426,0.006000000000000005,0.9938374296324632,0.9940208923920456,0.0013316082115322676,0.0060337086583442945,0.9940217843147642,Mirovanje
0.0012596153846153846,0.00111799264057448,0.005,0.0016842026189085627,0.018999999999999996,0.0013867504905630728,0.005999999999999998,0.019050540069065678,0.9940192307692308,0.0013656554444293084,0.007000000000000006,0.9940201688868521,0.9942031950672691,0.0013648030130163067,0.007052561235407873,0.9942041318407557,Mirovanje
0.0015000000000000002,0.0013728129459672882,0.006,0.0020333753673671233,0.01842307692307692,0.001432401880733544,0.006000000000000002,0.018478677941387973,0.9937788461538463,0.0012477420434932032,0.007000000000000006,0.9937796294566903,0.9939527074402655,0.0012503795779793896,0.007074253494478766,0.9939534939205773,Mirovanje
0.001634615384615385,0.0014348525273169814,0.006,0.0021750331562459526,0.01825961538461538,0.0015871793577316546,0.007999999999999998,0.018328466720042142,0.9935865384615384,0.0012216837130266404,0.006000000000000005,0.9935872895337766,0.9937579517680729,0.0012242068206423846,0.006095011774993941,0.9937587058157605,Mirovanje
0.0016250000000000001,0.0013811053265688764,0.006,0.002132622076945872,0.018403846153846153,0.0016262227989165495,0.007999999999999998,0.018475555576116076,0.9937980769230769,0.0013328671214016844,0.006000000000000005,0.993798970733402,0.9939720877957481,0.00133309583306246,0.006074832913940731,0.9939729817563143,Mirovanje
0.001730769230769231,0.0013952582420936196,0.007,0.002223130156402835,0.018144230769230767,0.0015897403587642933,0.006000000000000002,0.018213741642380477,0.9939423076923077,0.001299607359913305,0.0050000000000000044,0.9939431573284258,0.9941116627840763,0.001297924877070439,0.00505205181098245,0.9941125100773593,Mirovanje
0.0016923076923076922,0.001387283753605495,0.006,0.0021882553640883732,0.018019230769230767,0.0014410250707180183,0.006000000000000002,0.018076759410061052,0.9938173076923077,0.001313864112199373,0.0050000000000000044,0.9938181761809813,0.9939841007103541,0.0013162579644219734,0.005073132079364551,0.9939849722204054,Mirovanje
-0.2828076923076923,0.4471615625450733,0.993,0.5290875672761115,0.02119230769230769,0.004622430519253421,0.013999999999999999,0.021690568670064168,0.7013461538461538,0.4593148695701937,1.018,0.8383654196846844,0.9915870424526952,0.003981052420925027,0.013608937527119336,0.9915950340428604,Mirovanje
-0.7763076923076923,0.40316545746712296,0.992,0.8747548337853123,0.026105769230769238,0.0038901212884758815,0.016,0.02639401884460248,0.1945384615384616,0.4142168217779029,1.02,0.4576251615258261,0.9875722861677864,0.003798883573982657,0.014628199271132014,0.9875795927028245,Mirovanje
-0.9849519230769231,0.001607553131627668,0.008000000000000007,0.9849532349304712,0.027644230769230775,0.0015745467554846067,0.009000000000000001,0.02768903559728457,-0.019817307692307686,0.0012307316700999385,0.005999999999999998,0.019855487518955172,0.9855410761904577,0.0016078613986929976,0.007969797743824003,0.9855423877626589,Mirovanje
-0.9847884615384614,0.0015912807911280216,0.008000000000000007,0.984789747181522,0.027259615384615393,0.0015565938672163725,0.005999999999999998,0.027304021963524265,-0.019317307692307693,0.001186984082883066,0.0049999999999999975,0.019353741439119925,0.9853569800917531,0.0015952621675436299,0.007969797743824003,0.9853582714307132,Mirovanje
-0.9850673076923078,0.0014295267040643695,0.006000000000000005,0.9850683449541809,0.027125000000000007,0.0013706224021337058,0.006999999999999999,0.02715960660188639,-0.019269230769230764,0.0011113987135999922,0.0049999999999999975,0.019301255439438687,0.9856306421821409,0.0014367027170845282,0.006150548608741202,0.9856316892851391,Mirovanje
-0.9853365384615385,0.001431853135753408,0.006000000000000005,0.9853375788179243,0.026971153846153853,0.0014441974798990427,0.008,0.027009791671796474,-0.019288461538461536,0.0012378103878272386,0.005999999999999998,0.019328138117183535,0.9858961459275272,0.0014280914704242493,0.00604417562318571,0.9858971802373714,Mirovanje
-0.9851442307692309,0.0016137526096670163,0.006000000000000005,0.9851455525024638,0.026951923076923085,0.0015088189962065065,0.008,0.026994123292074006,-0.019038461538461535,0.0013931361750980642,0.005999999999999998,0.019089364739399952,0.9856988606764913,0.0016131382188489603,0.006080815482893964,0.9857001806603497,Mirovanje
-0.984971153846154,0.0016258532125130664,0.007000000000000006,0.9849724957112723,0.027240384615384625,0.001289716667660086,0.0049999999999999975,0.02727089883148194,-0.01924038461538461,0.0013264701010554604,0.005999999999999998,0.019286055145542935,0.985537316658253,0.0016335935530587288,0.007043610363969277,0.9855386705522244,Mirovanje
-0.9852019230769231,0.0015340983802340355,0.008000000000000007,0.9852031174799984,0.026942307692307696,0.0013993605894020303,0.005999999999999998,0.02697862401691669,-0.01950961538461538,0.0012403100752796607,0.005999999999999998,0.019549001548377392,0.9857650978597255,0.0015375790380055022,0.00800915236423827,0.9857662970033477,Mirovanje
-0.9852692307692308,0.0015456562536469336,0.008000000000000007,0.9852704431544905,0.02667307692307693,0.0014704938187581466,0.006999999999999999,0.02671358052780242,-0.019374999999999996,0.001234032632656665,0.0049999999999999975,0.01941425923228753,0.9858225007010382,0.001540166079124303,0.007902185116967164,0.9858237038132122,Mirovanje
-0.98525,0.001459386066915707,0.007000000000000006,0.9852510808457365,0.027076923076923085,0.0016094212271467443,0.006999999999999999,0.02712471198003769,-0.019394230769230764,0.0011882296886121847,0.005999999999999998,0.019430596411924083,0.9858148336199068,0.0014505859404564088,0.00698620696541874,0.9858159008580737,Mirovanje
-0.985423076923077,0.0014256733071423581,0.007000000000000006,0.9854241082279868,0.027259615384615393,0.001506365929516951,0.0049999999999999975,0.02730120453809262,-0.019374999999999996,0.0011700386252664421,0.005999999999999998,0.019410296633091816,0.9859922794453299,0.0014189206252375299,0.006895691363419831,0.9859933004141248,Mirovanje
-0.9852115384615385,0.0013844818311658717,0.007000000000000006,0.9852125112419616,0.027490384615384625,0.001427714636347277,0.006999999999999999,0.027527433868499533,-0.01920192307692307,0.0010952678605667813,0.0049999999999999975,0.019233134469931353,0.9857836836073618,0.0013764149505148446,0.006934364928149583,0.9857846445266915,Mirovanje
-0.9854807692307693,0.0015253043153541112,0.009000000000000008,0.9854819496454124,0.02734615384615385,0.0014194340067112262,0.006999999999999999,0.0273829677551014,-0.01924038461538461,0.0011560475794348435,0.0049999999999999975,0.019275083557635908,0.9860495543657561,0.0015182823347046057,0.008978744527340266,0.9860507232623248,Mirovanje
-0.9859519230769231,0.0014503302521276628,0.008000000000000007,0.9859529897905494,0.027125000000000007,0.0014120872439815416,0.005999999999999998,0.027161730714087704,-0.01915384615384615,0.001124630116708727,0.0049999999999999975,0.019186834428446382,0.9865125934298804,0.001447519237781758,0.007988468388902326,0.9865136554086276,Mirovanje
-0.9854615384615385,0.0014801447234533748,0.008000000000000007,0.9854626500357,0.027288461538461546,0.0014322727831819564,0.005999999999999998,0.027326023099996426,-0.019326923076923075,0.001243771464386164,0.005999999999999998,0.01936690277449967,0.9860305535369585,0.0014732849427361945,0.007954809648748506,0.9860316541962145,Mirovanje
-0.9849903846153846,0.001289716667660087,0.007000000000000006,0.9849912289730534,0.027182692307692317,0.001342818670650852,0.005999999999999998,0.027215839562227787,-0.019384615384615382,0.0012192974987805664,0.005999999999999998,0.019422924599555032,0.9855577181660529,0.001287338434924512,0.006996265853124961,0.9855585589283485,Mirovanje
-0.9848846153846154,0.0012427303401079638,0.006000000000000005,0.984885399424725,0.027307692307692314,0.0012715596349858879,0.0049999999999999975,0.027337280828146078,-0.019163461538461535,0.0012566023858854554,0.006999999999999999,0.019204616832738625,0.985451090702801,0.0012417984655226993,0.006037259579692367,0.9854518731174898,Mirovanje
-0.9852500000000001,0.0015856932480536963,0.006000000000000005,0.9852512760321993,0.02740384615384616,0.0013120684694935148,0.006999999999999999,0.02743523842966027,-0.01936538461538461,0.0013449170142235281,0.006999999999999999,0.019412030369771294,0.9858230479645863,0.0015856404570780698,0.006161550825172668,0.9858243231701307,Mirovanje
-0.9856634615384616,0.0015229688675733452,0.007000000000000006,0.9856646381230046,0.02729807692307693,0.0015183480882721733,0.006999999999999999,0.02734027038299703,-0.019413461538461536,0.0011146798171109752,0.005999999999999998,0.01944543648263006,0.9862342797835436,0.0015295785707374397,0.007105649023318672,0.9862354659161113,Mirovanje
-0.9857692307692308,0.001309952797378955,0.006000000000000005,0.9857701011431075,0.026942307692307696,0.0014860047305347308,0.006999999999999999,0.02698325691695044,-0.01924038461538461,0.0011969126334327859,0.005999999999999998,0.019277577648657004,0.9863268641992081,0.0013154544824881542,0.006168243783118643,0.9863277414032003,Mirovanje
-0.9857788461538463,0.0014002522490418464,0.008000000000000007,0.9857798406494064,0.026942307692307696,0.0014130363044285651,0.006999999999999999,0.026979336822550243,-0.019317307692307686,0.001094254427214846,0.005000000000000001,0.019348275613882734,0.9863377686811355,0.0013930859640963942,0.0078699838850802,0.9863387524655941,Mirovanje
-0.985721153846154,0.0015717257221163413,0.008000000000000007,0.9857224068983815,0.027288461538461546,0.001391409612608441,0.006999999999999999,0.02732391175959536,-0.019307692307692307,0.0010291606277122813,0.005999999999999998,0.01933510159906469,0.9862893381628766,0.0015643514521022422,0.007976842339286527,0.986290578769376,Mirovanje
-0.9856826923076922,0.0014429165381596673,0.007000000000000006,0.9856837484320602,0.02723076923076924,0.0013245519505940438,0.006999999999999999,0.02726296445306766,-0.019307692307692303,0.0012331707339908772,0.006999999999999999,0.019347033165519004,0.9862494395921835,0.0014393575851190594,0.006943524679592028,0.9862504899092085,Mirovanje
-0.9854423076923078,0.0013993605894020314,0.006000000000000005,0.9854433012609096,0.026903846153846164,0.0013193765337726087,0.006000000000000002,0.02693617813105067,-0.019221153846153843,0.0012400118700519858,0.006999999999999999,0.019261110679693022,0.9859985197805894,0.0014025218036312628,0.006162570392203137,0.9859995172802688,Mirovanje
-0.985153846153846,0.0013428530961612389,0.006000000000000005,0.9851547613680572,0.02698076923076924,0.0013656554444293073,0.005999999999999998,0.027015309050183435,-0.018980769230769228,0.0014208662663127596,0.007999999999999998,0.01903387668181292,0.9857079781598451,0.001342021907191472,0.00613374213705109,0.9857088917275573,Mirovanje
-0.9851634615384615,0.0013805696770304995,0.006000000000000005,0.9851644288762545,0.027067307692307696,0.001475859743420262,0.005999999999999998,0.027107513860409767,-0.01924038461538461,0.0015719610015940424,0.007999999999999998,0.01930449329918974,0.9857253758637616,0.0013842220029789318,0.006102842765852046,0.9857263477721937,Mirovanje
-0.9850673076923078,0.0014495650745397555,0.007000000000000006,0.985068374237584,0.026942307692307703,0.001466464371022798,0.005999999999999998,0.026982187856778063,-0.01936538461538461,0.0012407945059183495,0.005999999999999998,0.019405094493655326,0.9856278019007956,0.001460889157015542,0.007059789185246301,0.9856288845589516,Mirovanje
-0.9850673076923078,0.001618786482077305,0.008000000000000007,0.9850686377881727,0.026990384615384617,0.0014175764279198788,0.006999999999999999,0.02702758562312558,-0.019201923076923075,0.0011212956764755856,0.005999999999999998,0.019234634226991527,0.9856257163973658,0.0016216869262779471,0.008059175927079054,0.9856270505075984,Mirovanje
-0.985153846153846,0.0017140215350120933,0.008000000000000007,0.9851553372243071,0.027144230769230778,0.0013546094330013844,0.006999999999999999,0.027178010059039106,-0.01919230769230769,0.0011935477422448386,0.005999999999999998,0.019229384565534875,0.9857162528194372,0.00170904964357691,0.00805205161692124,0.9857177344062938,Mirovanje
-0.9849615384615386,0.0016048189265403911,0.008000000000000007,0.9849628458435921,0.027182692307692317,0.0013641313316322698,0.005999999999999998,0.027216899444731307,-0.019249999999999996,0.0013210572688919693,0.005999999999999998,0.019295276424754645,0.9855264125729246,0.0016015995571683219,0.008004217597459395,0.9855277139685114,Mirovanje
-0.9852980769230769,0.0015183480882721746,0.008000000000000007,0.9852992468124752,0.026961538461538467,0.0014995068222783024,0.006999999999999999,0.027003204937989807,-0.019423076923076918,0.0012911854101226557,0.005999999999999998,0.01946594659714952,0.9858602263485399,0.0015218498883924501,0.008004217597459395,0.9858614009702769,Mirovanje
-0.9854038461538461,0.0013338725487584502,0.007000000000000006,0.9854047489386121,0.026980769230769235,0.0015810218776205452,0.006999999999999999,0.02702705197504046,-0.01920192307692307,0.0011383169736696279,0.005999999999999998,0.019235634000069127,0.9859620650499075,0.0013403981264928533,0.007082951138535742,0.9859629761733527,Mirovanje
-0.9852115384615383,0.0013131954342445427,0.008000000000000007,0.9852124136448952,0.026932692307692314,0.0016068628242929372,0.005999999999999998,0.026980584187095043,-0.019413461538461532,0.0013127377214980102,0.006999999999999999,0.019457794562353907,0.985772955912843,0.0013179845082173644,0.00803157569320212,0.9857738369891482,Mirovanje
-0.9854134615384615,0.0011978392158308439,0.006000000000000005,0.9854141895670064,0.027182692307692317,0.001567484652586645,0.006999999999999999,0.027227849148083093,-0.01971153846153846,0.0012608992282911928,0.005999999999999998,0.019751825621562566,0.9859874117853733,0.0011996605336848732,0.0060433289639434395,0.9859881416044594,Mirovanje
-0.985625,0.0013169567191065935,0.007000000000000006,0.9856258798347373,0.027451923076923082,0.0013997239267105202,0.006999999999999999,0.027487584610007255,-0.019509615384615382,0.0011093587224824666,0.0049999999999999975,0.01954113019328128,0.9862018394948926,0.0013152390708115133,0.006976977796445238,0.9862027165227862,Mirovanje
-0.9857211538461539,0.0014965134529274714,0.007000000000000006,0.9857222898424828,0.027259615384615393,0.0012089028107822235,0.005999999999999998,0.027286408281836524,-0.01949038461538461,0.0009902912577357888,0.004,0.019515526363149144,0.9862918402343858,0.0014974730483840175,0.0069865776968154325,0.9862929770298791,Mirovanje
-0.9854807692307693,0.0015315952545201501,0.008000000000000007,0.9854819594024501,0.027173076923076928,0.0011721307659746758,0.0049999999999999975,0.027198345537918295,-0.019413461538461536,0.0012058397721973757,0.005999999999999998,0.01945087500503611,0.9860478976834879,0.0015239160500707645,0.007966089337482107,0.9860490752727036,Mirovanje
-0.9853846153846153,0.0014955555457864306,0.008000000000000007,0.985385750314605,0.027307692307692314,0.0014615384615384618,0.006999999999999999,0.02734677593147232,-0.01957692307692307,0.0013423021820473194,0.005999999999999998,0.019622886951406827,0.9859593133247139,0.0014876953617117433,0.007959015735712005,0.9859604357017734,Mirovanje
-0.9855673076923076,0.00146605451071997,0.007000000000000006,0.9855683980869578,0.027375000000000007,0.0015761900266148116,0.008,0.027420339166392523,-0.01956730769230769,0.0011747702154768817,0.005999999999999998,0.019602541044074245,0.9861435251696865,0.0014661817692844215,0.00704362102692313,0.9861446151164021,Mirovanje
-0.9855865384615385,0.0015665406334382207,0.007000000000000006,0.9855877834298443,0.02740384615384616,0.0014840124323631135,0.008,0.027443998923682326,-0.01958653846153846,0.0012058397721973757,0.005999999999999998,0.019623621950637413,0.9861638311161799,0.0015609803961011831,0.006998331649074929,0.9861650665388317,Mirovanje
-0.9855576923076923,0.0015052914557865229,0.007000000000000006,0.985558841860409,0.027461538461538468,0.0014136904576530084,0.006999999999999999,0.027497902017874297,-0.01979807692307692,0.0013543363950680488,0.005999999999999998,0.019844346220600894,0.9861409182175608,0.001500959214818149,0.00698866340059312,0.9861420604869962,Mirovanje
-0.9856538461538461,0.0014126436670928442,0.007000000000000006,0.9856548584570565,0.027413461538461546,0.0013770828764169247,0.008,0.027448027812016492,-0.01969230769230769,0.0012015768732164085,0.005999999999999998,0.019728932288159164,0.9862332996887885,0.0014154804712667832,0.007089283842121263,0.9862343154646364,Mirovanje
-0.9854038461538461,0.0013624019426198867,0.007000000000000006,0.9854047879698201,0.027211538461538468,0.0014322727831819564,0.006999999999999999,0.02724920605759424,-0.019961538461538458,0.0011512791959304436,0.005999999999999998,0.01999471083908096,0.9859832904198319,0.0013619320964083598,0.00707047381373771,0.9859842310332118,Mirovanje
-0.9852980769230769,0.0013789614799963098,0.006000000000000005,0.9852990418766664,0.027384615384615393,0.0015019710915205107,0.008,0.027425773953036893,-0.019913461538461536,0.0012412042610914125,0.006999999999999999,0.019952106115935193,0.9858816176142203,0.0013775299741222908,0.0060235827433378075,0.9858825799954382,Mirovanje
-0.9854711538461539,0.0015686638776190233,0.007000000000000006,0.9854724023376964,0.027442307692307696,0.0013785926706171372,0.005999999999999998,0.027476913386164196,-0.01965384615384615,0.0011499935682866198,0.005999999999999998,0.01968746184367487,0.9860506984962913,0.0015661057702485044,0.007041875203347092,0.9860519421877874,Mirovanje
-0.9851634615384615,0.0016059419529400876,0.006000000000000005,0.9851647704825828,0.027000000000000007,0.0014005493427717787,0.006999999999999999,0.02703630038414166,-0.01947115384615384,0.0011925790634105598,0.0049999999999999975,0.019507641500783147,0.9857274301582403,0.0016025133434883784,0.006148181373779593,0.9857287327735682,Mirovanje
-0.985,0.0016112584665887253,0.007000000000000006,0.9850013178437103,0.027076923076923085,0.0015792665513575236,0.006999999999999999,0.027122939482177186,-0.019451923076923075,0.0011999984590719895,0.005999999999999998,0.019488902167446677,0.985566062732491,0.0016134737889391113,0.007015290984136668,0.9855673834435128,Mirovanje
-0.9855,0.001550434182365107,0.007000000000000006,0.9855012196066293,0.0271923076923077,0.0016988509865659828,0.008,0.027245324228345903,-0.019730769230769225,0.001265144938722964,0.006999999999999999,0.019771288429281646,0.9860747704616281,0.001553204321013863,0.007124541521816852,0.9860759937168208,Mirovanje
-0.9856153846153847,0.0013538243005229275,0.006000000000000005,0.9856163144098058,0.027038461538461546,0.001610799353182456,0.006999999999999999,0.027086400220831797,-0.01969230769230769,0.0012790991652550689,0.005999999999999998,0.01973380543440816,0.9861849626788726,0.0013545370744523064,0.005996286751804969,0.9861858929150302,Mirovanje
-0.9852884615384615,0.0012835728150742505,0.006000000000000005,0.9852892976177098,0.026836538461538464,0.001394429694031805,0.005999999999999998,0.026872741407776596,-0.01950961538461538,0.0012325332910755264,0.005999999999999998,0.019548509681539174,0.985848684422441,0.0012883648865142248,0.005967457921460695,0.9858495262774833,Mirovanje
-0.9852115384615383,0.0013421644181857116,0.006000000000000005,0.9852124526837229,0.026673076923076928,0.001540743499919561,0.008,0.026717539614959367,-0.01977884615384615,0.0012085968562538737,0.006999999999999999,0.019815737723800787,0.9857729205263321,0.0013477628418622387,0.006155060135570212,0.9857738418662225,Mirovanje
-0.9851346153846153,0.0012864507846403522,0.006000000000000005,0.9851354553484588,0.026942307692307696,0.0016280410779459132,0.008,0.02699145163822171,-0.019874999999999997,0.0012064530020493326,0.006999999999999999,0.019911583408813927,0.9857054456532878,0.001284293367299124,0.006155060135570212,0.9857062823174051,Mirovanje
-0.9853557692307694,0.0012854082652153855,0.007000000000000006,0.9853566076455615,0.027038461538461542,0.0014472990555559062,0.006999999999999999,0.027077168923709084,-0.019634615384615382,0.0012561976533884704,0.006999999999999999,0.019674759308468143,0.9859240734574158,0.0012786081003229735,0.006932880132600627,0.985924902546608,Mirovanje
-0.985375,0.001272395529941609,0.007000000000000006,0.9853758215094303,0.026750000000000003,0.0014790199457749042,0.005999999999999998,0.026790856649237624,-0.019624999999999997,0.0012104314234062299,0.005999999999999998,0.019662293081702583,0.9859352118168633,0.0012741602145049482,0.006932880132600627,0.9859360351384947,Mirovanje
-0.9852596153846155,0.001263353232683776,0.008000000000000007,0.9852604253542465,0.02675000000000001,0.0013498575423411853,0.005999999999999998,0.026784036577495476,-0.01965384615384615,0.0011829658845561313,0.005999999999999998,0.019689415352495285,0.9858202428252819,0.0012697627496385143,0.008041356580608228,0.9858210605690764,Mirovanje
-0.9851634615384615,0.0013805696770304995,0.008000000000000007,0.9851644288762545,0.027000000000000007,0.0014344658614593477,0.009000000000000001,0.027038078561682083,-0.019471153846153846,0.001440864662739482,0.006999999999999999,0.019524393027106453,0.9857277963339788,0.001386749083172021,0.008041356580608228,0.9857287717919476,Mirovanje
-0.9851634615384616,0.001664739393575077,0.009000000000000008,0.9851648680843691,0.027115384615384618,0.001552341236200813,0.009000000000000001,0.027159783617581458,-0.01952884615384615,0.0014071023879510386,0.006999999999999999,0.01957947316019431,0.9857322376515948,0.0016681059489011565,0.009057417479870655,0.9857336490772124,Mirovanje
-0.9855865384615382,0.002335390664581202,0.015000000000000013,0.9855893053631182,0.027000000000000007,0.0014544361847068491,0.006999999999999999,0.027039145412075888,-0.02000961538461538,0.0013264701010554604,0.006999999999999999,0.02005353412167618,0.9861612864419484,0.0023357193110092145,0.014969630468820383,0.9861640525092864,Mirovanje
-0.9854711538461538,0.002324438438258679,0.015000000000000013,0.9854738951778088,0.027019230769230775,0.0016051645568096345,0.008,0.027066868762666004,-0.019961538461538458,0.001839330338648976,0.009000000000000001,0.02004610071425747,0.9860465693533799,0.0023286652432172364,0.014969630468820383,0.986049319058324,Mirovanje
-0.9852307692307692,0.0017388699316088193,0.01100000000000001,0.9852323037272439,0.02692307692307693,0.00157316625663212,0.008,0.026968999296913543,-0.019682692307692304,0.0017390560164647854,0.009000000000000001,0.01975936973457636,0.9857978461544017,0.0017488397352733854,0.011022472726851862,0.9857993974045007,Mirovanje
-0.9852115384615383,0.002404615261577833,0.020000000000000018,0.9852144729409469,0.026951923076923085,0.0016194717069055128,0.008,0.027000534182749905,-0.019769230769230765,0.0015268794800984008,0.006999999999999999,0.019828107477867025,0.985780903198627,0.002398181293123562,0.019824468809870432,0.9857838203098159,Mirovanje
-0.9854038461538461,0.0031148503815445617,0.02300000000000002,0.9854087691449129,0.02702884615384616,0.001666737547802424,0.008,0.027080187193989972,-0.019798076923076915,0.0014436852395885737,0.006999999999999999,0.01985064424453466,0.9859757471508478,0.0031069202442799695,0.022931376027454098,0.9859806422659001,Mirovanje
-0.9855384615384615,0.0024881375368670587,0.02200000000000002,0.9855416023689715,0.026990384615384624,0.0014310780787419048,0.006999999999999999,0.027028297137515825,-0.01971153846153846,0.0012532502123177786,0.006999999999999999,0.01975133880564517,0.9861068423900442,0.0024878951557002938,0.02205451327743302,0.9861099807986781,Mirovanje
-0.9853076923076924,0.0013872837536054962,0.006000000000000005,0.9853086689342193,0.02710576923076924,0.0014406079728229145,0.006999999999999999,0.02714402470016333,-0.019817307692307693,0.0012539508568836701,0.006999999999999999,0.01985694027092485,0.9858815045639103,0.0013885926580443704,0.006039161469147625,0.9858824824647049,Mirovanje
-0.9851346153846154,0.0014348525273169827,0.008000000000000007,0.9851356603182981,0.027019230769230775,0.0013796652968604188,0.006999999999999999,0.02705443231140339,-0.01992307692307692,0.0010803516850144727,0.0049999999999999975,0.019952347076125,0.9857079808955539,0.0014436381534677263,0.00802232914213663,0.9857090380494173,Mirovanje
-0.9852596153846154,0.0014935450361967437,0.008000000000000007,0.9852607474088345,0.027009615384615396,0.0013118922938002743,0.006999999999999999,0.027041456776871038,-0.019903846153846147,0.0011645338351694374,0.005999999999999998,0.019937884310257968,0.9858322528731218,0.0015063847799385917,0.00802232914213663,0.9858334037757089,Mirovanje
-0.9851826923076923,0.0014791137099168237,0.006000000000000005,0.9851838026480134,0.026942307692307696,0.0014466600996042515,0.006999999999999999,0.026981118754246816,-0.019874999999999993,0.0011904063624209628,0.005999999999999998,0.019910617577254916,0.9857531872093576,0.001480664760043867,0.0061395395100383165,0.9857542992356353,Mirovanje
-0.9851057692307692,0.0013792296430558716,0.006000000000000005,0.9851067347481458,0.02679807692307693,0.0014099905052347237,0.006999999999999999,0.02683514486638744,-0.019999999999999997,0.001135104197182593,0.005999999999999998,0.02003218564057506,0.9856747943811641,0.0013755105750593252,0.006161286128745225,0.9856757541441771,Mirovanje
-0.9850769230769232,0.0013278981924332372,0.007000000000000006,0.9850778180896713,0.02702884615384616,0.0013548824159117078,0.005999999999999998,0.027062783130513954,-0.01998076923076923,0.0012783761426630965,0.005999999999999998,0.020021622926610735,0.985651964475973,0.001331252172738863,0.007067038812984094,0.9856528634908399,Mirovanje
-0.9851826923076922,0.0013641313316322707,0.007000000000000006,0.9851836367281599,0.02711538461538462,0.00128083275425744,0.0049999999999999975,0.02714561871434533,-0.01966346153846154,0.0014047349662636675,0.005999999999999998,0.019713574003716323,0.9857537481939904,0.0013622091641223462,0.007024556600708665,0.9857546894092402,Mirovanje
-0.9851538461538463,0.0014126436670928442,0.006000000000000005,0.9851548589708352,0.027086538461538467,0.0012718140959568566,0.0049999999999999975,0.02711638023267628,-0.01935576923076923,0.0013149895380599424,0.005999999999999998,0.019400386594086213,0.9857178962743803,0.0014135753177828964,0.006119758716068846,0.9857189098474115,Mirovanje
-0.9847884615384616,0.0013564169211217208,0.006000000000000005,0.9847893956812055,0.026942307692307696,0.0013288725924120437,0.005999999999999998,0.026975059706214666,-0.019288461538461532,0.0013058527785665356,0.006999999999999999,0.019332614929181206,0.9853475103628984,0.001357023929604515,0.006119758716068846,0.985348444811432,Mirovanje
-0.9848942307692308,0.0013652153199486476,0.007000000000000006,0.9848951769682825,0.026903846153846164,0.0014379421110715478,0.006999999999999999,0.026942245923170835,-0.01964423076923077,0.0015987872160266284,0.008,0.0197091837242673,0.985459784756388,0.0013633714605744808,0.006892090550550178,0.9854607278597388,Mirovanje
-0.9850769230769232,0.0016153846153846168,0.007000000000000006,0.9850782475753659,0.027048076923076928,0.0014099905052347235,0.006999999999999999,0.027084802721480887,-0.019932692307692304,0.0014495650745397542,0.008,0.0199853311590892,0.9856518279700235,0.001621069247457274,0.007095712691472578,0.9856531610288447,Mirovanje
-0.9851057692307692,0.0016461976539821506,0.008000000000000007,0.9851071446997334,0.027048076923076928,0.0015151783830771803,0.005999999999999998,0.02709048229118911,-0.019769230769230765,0.0010762360445871716,0.0049999999999999975,0.019798504217005117,0.9856770277603465,0.0016608684447652602,0.008105232566457121,0.985678427043253,Mirovanje
-0.985125,0.0015484949268439801,0.007000000000000006,0.9851262170207117,0.027192307692307696,0.001557098652307474,0.005999999999999998,0.027236852862365612,-0.01977884615384615,0.001184488941803358,0.005999999999999998,0.01981428195092543,0.9857006053576642,0.001559481371999887,0.007167733455155867,0.9857018389881473,Mirovanje
-0.9854038461538461,0.0013482127112562404,0.007000000000000006,0.9854047684542163,0.02702884615384616,0.001382978466162732,0.005999999999999998,0.027064204289913157,-0.01964423076923076,0.0012854082652153846,0.008,0.01968624080222217,0.9859719778925904,0.0013548924865288345,0.007114808774761117,0.9859729088180248,Mirovanje
-0.9854423076923078,0.001371600153925525,0.008000000000000007,0.9854432622312271,0.02674038461538462,0.0012784846221187344,0.005999999999999998,0.02677092998585765,-0.01957692307692307,0.0011904451954263206,0.008,0.019613084329678416,0.9860009508965788,0.0013797380896546118,0.008014988701211756,0.986001916248723,Mirovanje
-0.9851730769230769,0.0014639403340898673,0.008000000000000007,0.9851741646101895,0.026576923076923085,0.0011904451954263201,0.005000000000000001,0.026603571188846056,-0.019673076923076918,0.0011721307659746756,0.0049999999999999975,0.01970796402863183,0.98572924294,0.0014656310833957686,0.008014988701211756,0.985730332525858,Mirovanje
-0.9849615384615386,0.0012319705675420754,0.006000000000000005,0.9849623089235445,0.02708653846153847,0.0014551670332558241,0.006999999999999999,0.027125598185534578,-0.01960576923076923,0.0011719335537639798,0.005999999999999998,0.019640764124254823,0.9855307220741409,0.0012261893532008092,0.005929115837726706,0.9855314848812836,Mirovanje
-0.985153846153846,0.0012767840517459883,0.006000000000000005,0.9851546735255489,0.02722115384615385,0.001512491136459921,0.006999999999999999,0.02726314079767491,-0.019846153846153843,0.001261632266681287,0.006999999999999999,0.0198862147846577,0.9857316336114958,0.0012718692770749948,0.006034506999166855,0.9857324541445545,Mirovanje
-0.9855,0.0014344658614593485,0.007000000000000006,0.9855010439833677,0.026855769230769242,0.0013687323531055553,0.006999999999999999,0.02689062604757965,-0.01997115384615384,0.0012283253982653252,0.008,0.020008892253964718,0.9860698331792975,0.0014329426091543133,0.007023865159271003,0.9860708743446229,Mirovanje
-0.985423076923077,0.0013636229154796809,0.007000000000000006,0.9854240204094885,0.02682692307692308,0.0012743196351561014,0.005000000000000001,0.026857172083220013,-0.019817307692307686,0.0009683890575919919,0.005999999999999998,0.019840954148892677,0.9859886527660872,0.0013593271728086687,0.007023865159271003,0.9859895897796519,Mirovanje
-0.985076923076923,0.0014052943004957792,0.006000000000000005,0.9850779254611126,0.026596153846153856,0.0013694414271830714,0.005999999999999998,0.026631386919024124,-0.01961538461538461,0.0011377076505960802,0.005999999999999998,0.019648350880104224,0.9856327054546594,0.001406282488005942,0.006113049562326722,0.9856337086830521,Mirovanje
-0.9848653846153845,0.0016175580616596863,0.007000000000000006,0.9848667129656136,0.026846153846153853,0.0015239702120122271,0.009000000000000001,0.026889374509989284,-0.019634615384615382,0.0012789545934359854,0.005999999999999998,0.01967622540412277,0.9854288457504198,0.001620055054540032,0.006974844366926858,0.9854301774430213,Mirovanje
-0.9853269230769229,0.0015838263532217689,0.007000000000000006,0.9853281960068705,0.027076923076923085,0.0015485247799382617,0.011000000000000003,0.027121166868475485,-0.019721153846153843,0.0013760082371261642,0.005999999999999998,0.019769099819979354,0.9858983324747265,0.0015833097319075452,0.006974844366926858,0.9858996038371016,Mirovanje
-0.9854134615384615,0.001584847583809033,0.007000000000000006,0.9854147359985422,0.02708653846153847,0.0014551670332558241,0.010000000000000002,0.027125598185534578,-0.019701923076923072,0.0014336599726433616,0.005999999999999998,0.01975401614472748,0.9859846233399625,0.0015948952938474959,0.007117907913190891,0.9859859132633925,Mirovanje
-0.9852403846153847,0.0015719610015940437,0.007000000000000006,0.9852416386544275,0.027221153846153853,0.0013225611136761448,0.005999999999999998,0.027253263742447152,-0.019826923076923072,0.0013260866929276397,0.005999999999999998,0.019871220008227594,0.9858175123560055,0.0015889115485241655,0.007117907913190891,0.9858187928355252,Mirovanje
-0.9852596153846155,0.0015565938672163738,0.007000000000000006,0.9852608450011132,0.026875000000000007,0.0015360257159305639,0.006999999999999999,0.02691885955979562,-0.01977884615384615,0.0012931530545473755,0.005999999999999998,0.0198210746429148,0.9858265542841932,0.0015612688629320604,0.007065012200793475,0.9858277905863213,Mirovanje
-0.9851153846153846,0.0014761416201842696,0.008000000000000007,0.9851164905735768,0.026932692307692314,0.0014693301919642679,0.006999999999999999,0.026972742651681647,-0.019826923076923072,0.001361858936642709,0.006999999999999999,0.019873639285786046,0.9856849403341952,0.001479453611822044,0.007948912594718971,0.9856860506188648,Mirovanje
-0.9852500000000001,0.00136402966356195,0.007000000000000006,0.9852509442151898,0.026990384615384624,0.0013551553438322708,0.006999999999999999,0.02702438357654634,-0.019807692307692304,0.0013088230405518123,0.006999999999999999,0.019850886436320478,0.9858204357789812,0.0013661908588470956,0.006982313609718682,0.9858213824405124,Mirovanje
-0.985153846153846,0.0014396128670933013,0.007000000000000006,0.9851548980119436,0.0265673076923077,0.0014856002612057778,0.006999999999999999,0.02660881143820306,-0.019721153846153843,0.0010782529563464333,0.0049999999999999975,0.019750608559270737,0.9857110246962553,0.0014367511255248453,0.0070043505143195794,0.9857120717844224,Mirovanje
-0.9851346153846153,0.0014077921360147086,0.007000000000000006,0.9851356212764272,0.02677884615384616,0.001518835148098895,0.009000000000000001,0.026821884004269003,-0.019788461538461536,0.0010622280368954983,0.0049999999999999975,0.01981695078617138,0.9856988998054725,0.0014128800279950046,0.0070043505143195794,0.985699912401179,Mirovanje
-0.9853846153846153,0.0015399031707052015,0.008000000000000007,0.9853858186205348,0.026884615384615392,0.001317833976847063,0.008,0.026916894894642485,-0.01971153846153846,0.0011238077179759219,0.0049999999999999975,0.01974354811850424,0.9859498812751936,0.0015395047808953088,0.007962708414818054,0.9859510831991304,Mirovanje
-0.9854711538461539,0.0014803633309819519,0.008000000000000007,0.9854722657378348,0.02661538461538462,0.0014432048491764401,0.006999999999999999,0.026654484396842842,-0.019730769230769225,0.001242135020150396,0.0049999999999999975,0.019769829383334443,0.9860297725893354,0.0014770911254145616,0.007921999061988205,0.9860308789438439,Mirovanje
-0.985125,0.0012985754028638768,0.006000000000000005,0.9851258558798854,0.02659615384615385,0.001451254303440454,0.006999999999999999,0.02663571922178071,-0.01966346153846154,0.0012216837130266398,0.005999999999999998,0.019701376367381816,0.9856819319070461,0.0012987703033530528,0.006039320018852989,0.9856827875601296,Mirovanje
-0.9851153846153846,0.0014298177150339326,0.008000000000000007,0.9851164222489722,0.026769230769230774,0.001338991937348401,0.005999999999999998,0.026802697912423207,-0.019874999999999997,0.0012301305434164922,0.005999999999999998,0.01991303206831763,0.9856810890061465,0.0014386180212151557,0.008068977361485485,0.9856821388491088,Mirovanje
-0.9853653846153846,0.0015631433586729396,0.008000000000000007,0.9853666244679614,0.026807692307692314,0.001330680299385092,0.005999999999999998,0.026840698145224856,-0.020057692307692308,0.0013216170389462813,0.005999999999999998,0.02010118634080318,0.9859358077783014,0.0015647124858877471,0.008107654111118134,0.9859370494025546,Mirovanje
-0.9853269230769232,0.0015028326311202346,0.006000000000000005,0.9853280691455785,0.026673076923076928,0.001243771464386164,0.005000000000000001,0.026702059845637376,-0.019903846153846147,0.0012898958721333854,0.005999999999999998,0.01994559909044908,0.9858904578216156,0.0014953078331360558,0.00610884921131305,0.9858915917935556,Mirovanje
-0.9854711538461539,0.0014932974017848953,0.007000000000000006,0.9854722852521017,0.026403846153846163,0.0013694414271830716,0.007000000000000003,0.02643933549729383,-0.019846153846153843,0.0011416016984350645,0.005000000000000001,0.019878960660031423,0.986026173348769,0.001490640682606464,0.007034801262065238,0.9860273000979544,Mirovanje
-0.9854807692307693,0.0014869998786325635,0.007000000000000006,0.985481891103184,0.026586538461538467,0.0013978732260877661,0.007000000000000003,0.026623261951216212,-0.019701923076923072,0.0010996486125148881,0.005999999999999998,0.019732587260671116,0.9860377884339637,0.0014867916762151068,0.007089370356667457,0.9860389093586677,Mirovanje
-0.9852980769230769,0.0015246677298318269,0.007000000000000006,0.985299256571322,0.0268173076923077,0.0014057876458859085,0.006999999999999999,0.026854128747163458,-0.01956730769230769,0.0010809933383851805,0.0049999999999999975,0.01959714461147534,0.9858587661428082,0.0015200417993877903,0.007022200844071791,0.9858599379768367,Mirovanje
-0.9850096153846154,0.001437781359138584,0.007000000000000006,0.9850106647216489,0.026807692307692314,0.001557098652307474,0.008,0.026852875508535826,-0.019557692307692307,0.001183434726328111,0.0049999999999999975,0.019593464373454893,0.9855703688631384,0.0014277267219625037,0.007041011368341787,0.9855714029864174,Mirovanje
-0.6532307692307693,0.47596210722576743,1.021,0.8082390521279057,0.023730769230769236,0.004856064347467563,0.017,0.024222526070390948,-0.34496153846153843,0.4667271465106147,0.999,0.5803728907415406,0.9952254294457906,0.014004750836058927,0.03510989814531407,0.9953239615630373,Mirovanje
-0.14550961538461543,0.38421876268585853,1.022,0.41084924944464823,0.018673076923076924,0.004034567719891504,0.018000000000000002,0.01910396656355791,-0.841951923076923,0.376066876719464,0.999,0.9221221917611903,1.0096295874026155,0.010931609551109446,0.03510989814531407,1.009688765831409,Mirovanje
0.03050000000000001,0.0016052797503622468,0.007000000000000003,0.030542215425160682,0.016730769230769233,0.0012575217480209086,0.007000000000000001,0.016777961735562518,-1.013548076923077,0.0011083581732620044,0.0050000000000001155,1.0135486829414302,1.0141469507165586,0.0011054264745538423,0.005041738788422956,1.0141475531772408,Mirovanje
0.0300673076923077,0.0014092034239033156,0.007000000000000003,0.030100313057406,0.016673076923076926,0.0012591381949900655,0.006,0.0167205539105893,-1.0135384615384615,0.0013076923076923105,0.0050000000000001155,1.013539305146536,1.0141231864150397,0.0013006235276019934,0.005087972280263919,1.0141240204462934,Mirovanje
0.029740384615384623,0.0011265603905736552,0.005000000000000001,0.029761713918802044,0.016759615384615387,0.0014967605552536829,0.008000000000000002,0.01682631867046384,-1.0133173076923077,0.0013320344696750083,0.006000000000000005,1.0133181831905589,1.0138939066071564,0.0013308436717535007,0.00608103107419522,1.0138947800437677,Mirovanje
0.02973076923076924,0.0013317915148600599,0.008,0.029760583120838,0.01685576923076923,0.0017176586772001433,0.008000000000000002,0.016943060753367666,-1.0130096153846153,0.001319201334051518,0.006000000000000005,1.0130104743554462,1.013588299204179,0.0013192746531161443,0.005961016378462691,1.01358915778003,Mirovanje
0.029903846153846166,0.0013624019426198852,0.008,0.02993486518837447,0.01657692307692308,0.0016390212117432703,0.008000000000000002,0.016657754027202144,-1.0130288461538461,0.0011966036131905143,0.006000000000000005,1.0130295528759266,1.0136079280021006,0.0011917274711666511,0.005893726608363625,1.013608628575683,Mirovanje
0.03004807692307693,0.0012738479538263014,0.006000000000000002,0.03007506634048569,0.016548076923076922,0.0015496886020467497,0.007000000000000001,0.016620480877982582,-1.0132499999999998,0.0010629241234950337,0.0040000000000000036,1.0132505575165958,1.0138324871567503,0.0010631525053494766,0.004097805538914923,1.0138330445924972,Mirovanje
0.029894230769230777,0.0013149895380599422,0.006000000000000002,0.029923138718544063,0.016692307692307694,0.001569400443315628,0.007000000000000001,0.01676592239771358,-1.0135865384615383,0.0011897848619609665,0.006000000000000005,1.0135872367677394,1.0141667281986437,0.0011934562978820232,0.006059205324735251,1.014167430419197,Mirovanje
0.029817307692307702,0.0012691943467967495,0.006000000000000002,0.029844307536072808,0.01643269230769231,0.001349960277741271,0.007000000000000001,0.016488049285187416,-1.013548076923077,0.0012851205248199998,0.006000000000000005,1.013548891652115,1.01412140669531,0.0012910124300510245,0.006102704190087849,1.0141222284472269,Mirovanje
0.02970192307692309,0.0013147082719130833,0.007000000000000003,0.02973100557175442,0.01645192307692308,0.0011169998251868507,0.004999999999999999,0.016489798711277877,-1.013375,0.0012340326326566755,0.0050000000000001155,1.013375751368434,1.0139451363018344,0.0012329579227805412,0.0050860816052833435,1.0139458859403616,Mirovanje
0.02950000000000001,0.0014344658614593472,0.006000000000000002,0.029534855549125213,0.01636538461538462,0.0012939035476157194,0.006999999999999999,0.016416455159382004,-1.013346153846154,0.0011416016984350742,0.0050000000000001155,1.0133467968909904,1.013909380785403,0.001142810963968895,0.005084529433118323,1.0139100248353097,Mirovanje
0.029307692307692316,0.001474637654821601,0.007000000000000003,0.02934476758496111,0.01643269230769231,0.0014261596029258967,0.008,0.016494462940402386,-1.013346153846154,0.001116047548349767,0.0050000000000001155,1.0133467684247692,1.0139051205834622,0.0011234873678116833,0.005050917018465606,1.01390574303987,Mirovanje
0.029365384615384627,0.00135204753776585,0.007000000000000003,0.02939649377313298,0.016711538461538465,0.001398303071329653,0.006,0.01676993647068376,-1.0132403846153846,0.0012364277974167561,0.0050000000000001155,1.0132411390035596,1.0138054312121487,0.0012401731187603533,0.005041246931461352,1.0138061897545383,Mirovanje
0.029548076923076934,0.0013578816058925393,0.006000000000000002,0.029579261185967647,0.01675,0.0017139136501002608,0.007000000000000001,0.016837458240482737,-1.013326923076923,0.0013828781837189905,0.0050000000000001155,1.0133278666772245,1.0138983603952312,0.0013830635506107618,0.0051489579257471,1.013899303716559,Mirovanje
0.029567307692307702,0.0014261596029258967,0.007000000000000003,0.029601682644481805,0.01676923076923077,0.0017333314368067304,0.007000000000000001,0.01685857462721978,-1.0132403846153846,0.0013901797912755879,0.0050000000000001155,1.0132413382878653,1.0138128816815202,0.0013862560523840873,0.005136105988259088,1.0138138294426797,Mirovanje
0.029894230769230777,0.0013861836738018496,0.008,0.029926351906998928,0.016625000000000004,0.001539152489071627,0.007000000000000001,0.016696095812632827,-1.0130288461538461,0.001340613599246708,0.006000000000000005,1.0130297332184357,1.0136083006866106,0.0013413864705863437,0.005956738104864412,1.013609188266593,Mirovanje
0.03000000000000001,0.0014478100172860544,0.008,0.030034915579141452,0.01649038461538462,0.0015871793577316546,0.009000000000000001,0.016566590568880584,-1.0131442307692307,0.0013687323531055527,0.006000000000000005,1.0131451553302866,1.0137247156874407,0.0013618555618285758,0.006033423301585739,1.013725630457351,Mirovanje
0.02958653846153847,0.0013700826541818345,0.008,0.029618244117695175,0.01702884615384615,0.0014900744094044867,0.008,0.017093914796702456,-1.0132307692307694,0.001265144938722963,0.006000000000000005,1.0132315590760546,1.01380769913456,0.0012584875344755233,0.006045227049134683,1.0138084802443628,Mirovanje
0.02948076923076924,0.0012479272756082784,0.007000000000000003,0.029507169923987574,0.017240384615384616,0.0013622322765035075,0.006,0.01729411860898203,-1.013173076923077,0.0012967585898063967,0.007000000000000117,1.0131739067823526,1.0137501938086986,0.0012921117698039338,0.006965903706638077,1.0137510172621282,Mirovanje
0.029807692307692316,0.0013450544961573622,0.007000000000000003,0.029838024269507057,0.016740384615384615,0.001407365188978301,0.006,0.01679943909320052,-1.0130961538461538,0.0014840124323631163,0.008000000000000007,1.0130972407576526,1.0136746831265602,0.00147812894938555,0.007886665524390546,1.0136757608214388,Mirovanje
0.030076923076923088,0.00149802631493465,0.008000000000000004,0.030114205694578504,0.016865384615384615,0.0014348525273169812,0.006,0.01692631087981076,-1.0132499999999998,0.0013640296635619499,0.006999999999999895,1.0132509181229115,1.0138387156241657,0.0013591037783142995,0.006965988866887152,1.0138396265985752,Mirovanje
0.02975961538461539,0.0015535021991745735,0.008000000000000004,0.02980013551853543,0.016759615384615387,0.001509554138885006,0.007000000000000001,0.01682746152984643,-1.0132788461538462,0.0011133519276459217,0.0050000000000001155,1.0132794578078568,1.0138566156960553,0.0011108389563886396,0.005120999354466305,1.0138572242450343,Mirovanje
0.029288461538461548,0.0014522732639335113,0.008000000000000004,0.029324445040325605,0.016548076923076922,0.0015804077351960332,0.008000000000000002,0.016623373257601434,-1.0133076923076922,0.0011935477422448377,0.006000000000000005,1.0133083952312611,1.0138681998880548,0.0011986314253086367,0.0059156542247611466,1.0138689084203827,Mirovanje
0.02951923076923078,0.0015062738618012205,0.008000000000000004,0.02955763600415037,0.016990384615384616,0.0015410735038857482,0.008000000000000002,0.017060131210605532,-1.0134807692307692,0.0014805194594541722,0.006999999999999895,1.0134818506211454,1.014055212039309,0.0014799991388160746,0.007018667000752599,1.0140562920575653,Mirovanje
0.03003846153846155,0.0013862170223800077,0.007000000000000003,0.030070430147085846,0.01715384615384615,0.0012767840517459866,0.006,0.017201296909960466,-1.0135,0.0014478100172860516,0.006999999999999895,1.0135010341158246,1.014091905218981,0.0014385088803380841,0.007018667000752599,1.0140929254947306,Mirovanje
0.03005769230769232,0.0012772184551784868,0.006000000000000002,0.03008481600153396,0.01705769230769231,0.0015306291006599154,0.007000000000000001,0.017126228198517394,-1.0134615384615384,0.0012319705675420721,0.006000000000000005,1.013462287257058,1.0140526140842476,0.001227765191538846,0.006040197134536962,1.0140533573429267,Mirovanje
0.029807692307692316,0.001209552707193568,0.006000000000000002,0.029832223156538946,0.01689423076923077,0.0015684281035407174,0.007000000000000001,0.01696687950095715,-1.0133076923076922,0.0014483207987509789,0.007000000000000117,1.0133087273497041,1.0138887138301227,0.0014454858829408379,0.007058416530446587,1.0138897442333354,Mirovanje
0.029653846153846163,0.0013499945211372492,0.006000000000000002,0.02968455957098028,0.016884615384615383,0.0012883180172649402,0.004999999999999999,0.0169336942218761,-1.0134134615384616,0.0014251219713189791,0.007000000000000117,1.0134144635833848,1.0139895301878252,0.0014250425945920276,0.007003823788644947,1.013990531551909,Mirovanje
0.029519230769230777,0.0016051645568096343,0.007000000000000003,0.02956284050055979,0.016961538461538465,0.0013439542468966265,0.007000000000000001,0.017014699527173556,-1.013653846153846,0.0012229317765834343,0.0050000000000001155,1.0136545838620843,1.0142275751404046,0.0012258661802335554,0.005092475541603969,1.014228315973813,Mirovanje
0.02950961538461539,0.0015932259986706962,0.007000000000000003,0.02955259327420809,0.016951923076923076,0.0014831087911513882,0.007000000000000001,0.017016677339959988,-1.0136826923076923,0.001302840263224654,0.006000000000000005,1.0136835295480158,1.0142561434022082,0.0013025838650496332,0.006026459893755609,1.0142569798398462,Mirovanje
0.029673076923076934,0.0014035826939294402,0.006000000000000002,0.02970625419775335,0.016730769230769233,0.0013883496652138494,0.007000000000000001,0.01678827429625076,-1.0137115384615385,0.0012532502123177764,0.006000000000000005,1.0137123131570187,1.014285648674469,0.0012587420202613087,0.0059968017793774475,1.0142864297319871,Mirovanje
0.029894230769230777,0.0013510556359236086,0.007000000000000003,0.02992474535589876,0.016673076923076922,0.0014573573798297994,0.007000000000000001,0.016736647950392716,-1.0136442307692308,0.001365215319948646,0.006999999999999895,1.0136451501312553,1.014223955716867,0.001365212026286907,0.006905232338757061,1.0142248745489564,Mirovanje
0.02998076923076924,0.0014609057334852846,0.008000000000000004,0.030016341702991875,0.016673076923076926,0.001444101448681096,0.006,0.01673549888939446,-1.0134615384615384,0.0015867424111335605,0.006999999999999895,1.0134627806152072,1.0140440610173032,0.0015835719596884678,0.006950254609531692,1.0140452975013567,Mirovanje
0.029759615384615395,0.0015348214147411186,0.007000000000000003,0.02979916751547574,0.0165,0.001286019499792345,0.004999999999999999,0.016550040669250518,-1.013480769230769,0.0015062738618012226,0.006999999999999895,1.013481888571048,1.0140538218830564,0.0015096412402345865,0.006980228458066895,1.0140549455982686,Mirovanje
0.02962500000000001,0.0013949600214839353,0.007000000000000003,0.0296578242368104,0.016461538461538465,0.001586742411133559,0.007000000000000001,0.016537835408541226,-1.0134134615384616,0.001268028276521922,0.006000000000000005,1.013414254845015,1.013982198229555,0.0012806775933353013,0.006020847019581943,1.0139830069885483,Mirovanje
0.029769230769230777,0.0014360119001995747,0.007000000000000003,0.029803845905675173,0.01636538461538462,0.0015753979491623224,0.007000000000000001,0.016441036837976257,-1.0132788461538462,0.0011885408860741037,0.0050000000000001155,1.0132795432121915,1.0138503718988479,0.0011970864430858477,0.005072092879740975,1.0138510786182477,Mirovanje
0.029913461538461545,0.001428491518263752,0.007000000000000003,0.029947550304336566,0.016673076923076922,0.0013260866929276393,0.007000000000000001,0.01672572868367773,-1.013625,0.0013096351517767246,0.006000000000000005,1.0136258460444023,1.014205228522062,0.0013099530424846677,0.0060302151772682056,1.0142060744929806,Mirovanje
0.029932692307692316,0.0014362372251351464,0.006000000000000002,0.029967129427989028,0.016442307692307697,0.0013855498983111575,0.006,0.01650058274029226,-1.0135865384615386,0.0014115633512792028,0.006999999999999895,1.0135875213623826,1.0141636845335,0.0014080170087093877,0.007015824605132837,1.0141646619452196,Mirovanje
0.029778846153846166,0.0013152707440589994,0.006000000000000002,0.0298078784113297,0.01584615384615385,0.0013138992963491326,0.006999999999999999,0.015900532163324696,-1.0134903846153844,0.0014209638678057523,0.006000000000000005,1.0134913807458619,1.0140533094054518,0.0014145912718280702,0.005996713741093229,1.0140542960732504,Mirovanje
0.02971153846153847,0.001291042191730542,0.006000000000000002,0.029739574773226123,0.01628846153846154,0.001615270142464131,0.011,0.016368355962743386,-1.013548076923077,0.0013928375001324327,0.006999999999999895,1.0135490339548299,1.014116409985561,0.00138441806631047,0.006968025513824916,1.014117354952268,Mirovanje
0.029567307692307702,0.0015176172054403312,0.007000000000000003,0.029606229853762975,0.01689423076923077,0.0017426674361160845,0.01,0.01698387244055145,-1.0134999999999998,0.0014610323010171287,0.006999999999999895,1.0135010530904172,1.0140745882204754,0.0014473804230331815,0.006869992901082478,1.0140756211371098,Mirovanje
0.029750000000000006,0.0016157279854842287,0.007000000000000003,0.029793842936470565,0.016759615384615387,0.0016201566419265447,0.007000000000000001,0.01683774377357654,-1.0133173076923077,0.0014295267040643758,0.006999999999999895,1.013318316036666,1.0138950576691559,0.0014157477711054342,0.006905118189828752,1.0138960461051676,Mirovanje
0.029865384615384623,0.0014481931202741806,0.006000000000000002,0.029900475941671254,0.016394230769230772,0.0013113283725260105,0.006,0.016446591884502534,-1.013076923076923,0.0012533977489846413,0.006999999999999895,1.0130776984402148,1.0136515212637927,0.0012431261706321798,0.006903250027428642,1.0136522835386288,Mirovanje
0.029817307692307702,0.0012307316700999377,0.006000000000000002,0.02984269656819803,0.016298076923076926,0.0011999984590719888,0.006,0.016342194090522476,-1.0132115384615383,0.0012984686018765155,0.006999999999999895,1.0132123704793123,1.0137826686722737,0.0012892781639506831,0.006903250027428642,1.0137834884917298,Mirovanje
0.029855769230769245,0.00132591237985519,0.006000000000000002,0.029885197004537213,0.016471153846153847,0.001300567411446241,0.006,0.01652242066452082,-1.0136153846153846,0.0012733034890189845,0.0050000000000001155,1.0136161843768918,1.0141904434703437,0.0012763184604072852,0.0050879079586656495,1.0141912465681135,Mirovanje
0.029615384615384623,0.001273303489018988,0.006000000000000002,0.029642744604579174,0.016711538461538465,0.001432272783181956,0.006,0.016772803077509828,-1.0135673076923075,0.0012691943467967506,0.006000000000000005,1.013568102337935,1.0141393716282283,0.001285387565932749,0.00609113127522698,1.0141401862206685,Mirovanje
0.029692307692307702,0.0014147364736730398,0.008000000000000004,0.02972599225231372,0.016673076923076926,0.0015407434999195613,0.006,0.01674411492481417,-1.013451923076923,0.001307374112871254,0.006000000000000005,1.0134527663465054,1.0140260166545527,0.0013218029676666636,0.006102442868890945,1.014026878152342,Mirovanje
0.029971153846153856,0.0014308196331072646,0.010000000000000002,0.03000528799549019,0.016798076923076923,0.0015088189962065063,0.006,0.016865702566952943,-1.0136634615384614,0.0012527705981533964,0.006000000000000005,1.0136642356778243,1.0142476857000178,0.00125856077909512,0.0060559350382425325,1.0142484665618563,Mirovanje
0.029894230769230777,0.0012703593467292965,0.008,0.029921210639842866,0.017153846153846155,0.001549002351200174,0.007000000000000001,0.01722364206995275,-1.0137596153846151,0.001113684048446112,0.006000000000000005,1.013760227113356,1.0143473213563428,0.0011146418451841772,0.006044623444578567,1.014347933782699,Mirovanje
0.02963461538461539,0.0014481931202741808,0.007000000000000003,0.029669979647915033,0.01701923076923077,0.0015503149136097951,0.007000000000000001,0.01708969550073062,-1.0139615384615384,0.0011678635731299206,0.006000000000000005,1.0139622110239688,1.0145394877344875,0.001165588552692625,0.00601212502989612,1.0145401572974972,Mirovanje
0.029701923076923084,0.0015120020330439353,0.007000000000000003,0.029740383061006202,0.016865384615384615,0.001454817542800552,0.006,0.016928015013807505,-1.0141442307692308,0.001251293709224801,0.006000000000000005,1.0141450027182806,1.0147214213848512,0.0012536339543600475,0.006102043883479347,1.0147221957833505,Mirovanje
0.029836538461538473,0.0013017043334020335,0.006000000000000002,0.029864920249993324,0.016942307692307694,0.0014860047305347306,0.006,0.01700735135169495,-1.0137115384615383,0.0014322727831819586,0.006999999999999895,1.0137125502899649,1.0142939630661716,0.0014333751924852514,0.007040664844799593,1.0142949758708868,Mirovanje
0.03004807692307693,0.0013754706026295963,0.007000000000000003,0.030079541987102235,0.01693269230769231,0.0014092034239033156,0.006,0.016991230769927267,-1.0134615384615384,0.0013792631597724005,0.006999999999999895,1.0134624770102207,1.0140501857438293,0.0013761794316642095,0.006950745991216367,1.0140511195580442,Mirovanje
0.02987500000000001,0.0015234544501029435,0.008000000000000004,0.029913818520234732,0.016826923076923076,0.0014239861959971845,0.008,0.016887068334174436,-1.013548076923077,0.0013073741128712636,0.006999999999999895,1.0135489201126595,1.0141300234188546,0.0013109833700361074,0.0069334294958613985,1.0141308707839058,Mirovanje
0.029432692307692316,0.001349960277741271,0.008000000000000004,0.029463634691442416,0.016182692307692315,0.0016511326128828792,0.008,0.01626670738750683,-1.013798076923077,0.0014635297669327429,0.006999999999999895,1.0137991333061533,1.0143565842852467,0.0014540109823095628,0.006863159505527516,1.0143576263974994,Mirovanje
0.029490384615384627,0.001216830627140823,0.006000000000000002,0.029515478338296694,0.016182692307692308,0.0015613383255604484,0.008,0.016257838346234954,-1.0141538461538462,0.0014791449633099563,0.007000000000000117,1.0141549248208883,1.014713524870829,0.0014679073233504645,0.006979960812713681,1.0147145866240872,Mirovanje
0.029682692307692313,0.0011788555652780292,0.005000000000000001,0.029706092356230954,0.01649038461538462,0.0014806131286350225,0.006999999999999999,0.016556720689798448,-1.013826923076923,0.0015898857463322825,0.007000000000000117,1.0138281697074252,1.0143971653986799,0.0015891653495580284,0.0070081355463766926,1.014398410199555,Mirovanje
0.02971153846153847,0.0012221755265719725,0.006000000000000002,0.029736664755302178,0.016634615384615383,0.0015692826160364113,0.008,0.01670847320742015,-1.0135865384615383,0.001596935628748656,0.006000000000000005,1.0135877964704616,1.0141603108130677,0.001589790263071383,0.006042078318670097,1.0141615568840787,Mirovanje
0.02955769230769232,0.0013069851028881688,0.006000000000000002,0.02958657439811822,0.016971153846153848,0.001521997237749128,0.009,0.01703926461035037,-1.0137211538461537,0.0015899729724917985,0.006999999999999895,1.0137224007435321,1.0142959754200018,0.0015754171177191753,0.00699783587051761,1.0142971988979894,Mirovanje
0.02960576923076924,0.00138964763955838,0.006999999999999999,0.02963836520976979,0.016798076923076923,0.001637186891335184,0.007999999999999998,0.016877670728828943,-1.0138461538461538,0.0015797348290702124,0.006999999999999895,1.0138473845854556,1.0144197045722896,0.0015718357982448697,0.007038617360079602,1.0144209223455063,Mirovanje
0.029826923076923088,0.0013041524487066131,0.008,0.029855420845236024,0.016278846153846158,0.0015345804410905005,0.007000000000000001,0.01635101737601576,-1.0138461538461538,0.0015176476659191408,0.006000000000000005,1.0138472897448987,1.0144174380406557,0.0015133556046801515,0.006118296547307889,1.0144185668875316,Mirovanje
0.02998076923076924,0.0012245938826871512,0.006000000000000002,0.030005768676142155,0.016403846153846154,0.0014109409760403948,0.007000000000000001,0.016464413839457605,-1.0138653846153844,0.0012939035476157172,0.0050000000000001155,1.013866210260354,1.01444292798421,0.001288893881757483,0.00514105652060981,1.0144437467817597,Mirovanje
0.02963461538461539,0.0011933928064692464,0.007000000000000003,0.029658634752540707,0.01693269230769231,0.0015888095632901908,0.008000000000000002,0.017007068666157157,-1.0139999999999998,0.0011180339887498978,0.0040000000000000036,1.0140006163706212,1.0145762045925444,0.0011180673447220306,0.00412033679686874,1.0145768206498706,Mirovanje
0.029673076923076934,0.0013188158127384556,0.007000000000000003,0.02970236975782857,0.016942307692307694,0.0015493604330430314,0.007000000000000001,0.01701300407606804,-1.0139326923076923,0.0012110423282074248,0.006000000000000005,1.0139334155425819,1.0145103095459878,0.0012149303163957095,0.006089094506848802,1.0145110370177197,Mirovanje
0.02987500000000001,0.0013915092802145002,0.007000000000000003,0.029907389104984125,0.01686538461538462,0.0011607167241017367,0.005000000000000001,0.016905279102649017,-1.013903846153846,0.0014644454894996858,0.006000000000000005,1.0139049037489432,1.0144856993705178,0.0014696950296115838,0.006089094506848802,1.0144867639505057,Mirovanje
0.029576923076923087,0.0012686478848054337,0.007000000000000003,0.029604118736315153,0.016721153846153847,0.0012438829617312098,0.007000000000000001,0.016767356105517377,-1.0140096153846154,0.00160824314266132,0.006999999999999895,1.0140108907395726,1.0145802181643702,0.0016172584591143252,0.007058668596619411,1.0145815071325637,Mirovanje
0.029625000000000012,0.0011700386252664413,0.007000000000000003,0.029648096319740587,0.016778846153846155,0.0015563562646403318,0.008000000000000002,0.01685087306571749,-1.0140192307692306,0.0014674727702281049,0.006999999999999895,1.0140202926204946,1.0145925060805219,0.0014703706544871263,0.007041471151161494,1.014593571527346,Mirovanje
0.029836538461538466,0.0012412042610914123,0.007000000000000003,0.029862344438851673,0.016836538461538462,0.001699041454439922,0.008000000000000002,0.016922049794004544,-1.0139134615384615,0.0012718140959568584,0.006000000000000005,1.01391425919552,1.0144942683833014,0.001272714439863926,0.006072865728469656,1.0144950667128032,Mirovanje
0.029807692307692316,0.0014147364736730398,0.007000000000000003,0.02984124662275355,0.01682692307692308,0.0015344900662153564,0.007000000000000001,0.016896745248715803,-1.0135961538461538,0.0018161626429265977,0.01200000000000001,1.0135977809459042,1.014176080335713,0.0018274609027239617,0.011993923535704942,1.0141777268006142,Mirovanje
0.02975961538461539,0.0013901797912755764,0.008000000000000004,0.029792067865327974,0.016903846153846155,0.0014177394708128118,0.007000000000000001,0.016963195453687376,-1.0136826923076923,0.0018926193848987864,0.01200000000000001,1.0136844591352419,1.0142622314389356,0.0019041734455690642,0.011993923535704942,1.0142640188826575,Mirovanje
0.029894230769230777,0.0012928670378328903,0.007000000000000003,0.02992217469472328,0.016711538461538465,0.0015669242098103981,0.007000000000000001,0.016784837480022536,-1.013855769230769,0.0011962945131238287,0.004999999999999893,1.0138564750116639,1.0144360880585142,0.0012010309354976,0.005154153623923241,1.0144367990322358,Mirovanje
0.029673076923076934,0.0013188158127384556,0.007000000000000003,0.029702369757828567,0.016692307692307694,0.0014876215081395167,0.007000000000000001,0.01675846513992716,-1.0137884615384616,0.001491469828230099,0.009000000000000119,1.0137895586514831,1.0143619279014462,0.0014917700584181311,0.008935623453471209,1.0143630248357074,Mirovanje
0.02967307692307693,0.001354780053766234,0.006000000000000002,0.029703988336196925,0.016903846153846155,0.0014312395835645861,0.007000000000000001,0.016964329091905216,-1.0136442307692308,0.001610770654249611,0.009000000000000119,1.0136455105971938,1.0142212441972878,0.0016138021462361867,0.008935623453471209,1.0142225281162223,Mirovanje
0.029923076923076934,0.0013776534375824858,0.007000000000000003,0.029954773601856204,0.01661538461538462,0.0015336463105674527,0.007000000000000001,0.016686014410969355,-1.0137500000000002,0.0015111763120674786,0.006000000000000005,1.0137511263391257,1.0143297050918294,0.0015189011258254959,0.006200475416258344,1.0143308423252777,Mirovanje
0.030163461538461552,0.0013524235860901783,0.006000000000000002,0.030193765275938367,0.016567307692307694,0.0014791137099168222,0.007000000000000001,0.01663320358615446,-1.0139326923076921,0.0015644145075648314,0.006000000000000005,1.0139338991882443,1.0145185068606664,0.001574192922862139,0.006196520898587243,1.0145197281700116,Mirovanje
0.03059615384615386,0.00309005610718675,0.032,0.030751797946186443,0.016798076923076923,0.0013110463209289368,0.007000000000000001,0.016849161129540866,-1.013798076923077,0.0013472179859900827,0.006000000000000005,1.0137989720695275,1.0144042874368322,0.0013655426380392863,0.006177359862621135,1.014405206550579,Mirovanje
0.030384615384615395,0.003154080666703216,0.032,0.030547881709262214,0.016519230769230772,0.0014276174963821127,0.006,0.01658080447152903,-1.013923076923077,0.0012986110012410937,0.0050000000000001155,1.0139239085393401,1.0145186310430403,0.0013174703389422927,0.005267670709650396,1.0145194864868483,Mirovanje
0.029923076923076934,0.0013776534375824858,0.007000000000000003,0.029954773601856204,0.01639423076923077,0.0015530260116622028,0.007000000000000001,0.016467625581962093,-1.013730769230769,0.0012727224698287959,0.0050000000000001155,1.0137315681716201,1.0143069164621699,0.0012816702163346212,0.00510026806774766,1.0143077262160327,Mirovanje
0.02967307692307693,0.0013898139588580502,0.008000000000000004,0.029705606826373316,0.01653846153846154,0.0013722740596085593,0.007000000000000001,0.016595295904377427,-1.0137692307692308,0.0011621496099798595,0.006000000000000005,1.0137698968928568,1.0143401189348682,0.0011635671137268395,0.0060701830672840185,1.0143407863086402,Mirovanje
0.029663461538461548,0.0013488640300629386,0.007000000000000003,0.029694113635792947,0.016548076923076922,0.0012851205248199911,0.006,0.016597903018616078,-1.013653846153846,0.0012917581249035936,0.006000000000000005,1.0136546692348132,1.0142245067882774,0.0012919213771733504,0.006057331129796006,1.01422532961407,Mirovanje
0.02967307692307693,0.0012360164587862622,0.005000000000000001,0.029698808574911396,0.016519230769230772,0.0012632434538396148,0.006,0.01656746115826952,-1.0135961538461538,0.0015474497057145298,0.006999999999999895,1.0135973350854408,1.0141664852922065,0.001548483890847294,0.006981772999799407,1.0141676674457274,Mirovanje
0.029721153846153855,0.0013042587842645953,0.005000000000000001,0.029749757594358255,0.01657692307692308,0.0013059943727961264,0.006,0.016628289148315892,-1.0138749999999999,0.0015107785817507927,0.006999999999999895,1.0138761256075235,1.0144476551363635,0.0015169516076175586,0.006981772999799407,1.0144487893205087,Mirovanje
0.029884615384615395,0.0013538243005229262,0.006000000000000002,0.029915264948234654,0.01647115384615385,0.0015439505445524052,0.007000000000000001,0.01654335795138618,-1.0138653846153844,0.0013086817523730132,0.006000000000000005,1.013866229228112,1.0144415251036385,0.0013147942293653119,0.006077385165345284,1.0144423771404965,Mirovanje
0.029826923076923084,0.0013828781837189842,0.008000000000000004,0.029858963349515204,0.016509615384615386,0.0014870931396241324,0.008000000000000002,0.01657645457128412,-1.0142596153846155,0.0012480384016812244,0.007000000000000117,1.0142603832349955,1.0148344256839836,0.0012449839841134971,0.006908977135534622,1.0148351893477392,Mirovanje
0.02991346153846155,0.001359514738957907,0.007000000000000003,0.029944339390583684,0.01670192307692308,0.001406576638593392,0.008000000000000002,0.016761046873858817,-1.0139326923076923,0.0018148131026728815,0.009000000000000119,1.0139343164509835,1.0145132370816203,0.0018127374165542497,0.008979102867532784,1.0145148565845494,Mirovanje
0.030028846153846163,0.001483607419882821,0.007000000000000003,0.03006547342563713,0.016336538461538465,0.0015292694140760163,0.007000000000000001,0.016407960075711846,-1.0136153846153846,0.00181504234061492,0.008000000000000007,1.0136170096775665,1.0141939078016198,0.0018203109419517543,0.00808279249358157,1.014195541379396,Mirovanje
0.02987500000000001,0.0015731368711541331,0.008000000000000004,0.02991638989944115,0.01616346153846154,0.0014748570786238455,0.006999999999999999,0.016230609733084347,-1.0139326923076923,0.0013535169507969502,0.006000000000000005,1.0139335957243263,1.014503774672896,0.0013604373673065256,0.006157002636446585,1.0145046868375642,Mirovanje
0.029750000000000013,0.0015301457949640465,0.008000000000000004,0.029789324365514673,0.01636538461538462,0.0015003697769068866,0.006999999999999999,0.016434017253152775,-1.0138076923076924,0.0014349813927828946,0.007000000000000117,1.013808707870398,1.014378382197382,0.0014403658211597935,0.007072245716101655,1.014379404820049,Mirovanje
0.029884615384615395,0.001339544212866769,0.007000000000000003,0.029914622099980057,0.016701923076923076,0.0015056292301553608,0.006,0.016769649783050147,-1.013826923076923,0.0013115046239713457,0.007000000000000117,1.0138277713694765,1.014406789895309,0.0013116339142121348,0.007072245716101655,1.0144076378701172,Mirovanje
0.030240384615384627,0.0014243432515460774,0.007000000000000003,0.030273909813313103,0.016961538461538465,0.0013510898515577145,0.006,0.0170152646399999,-1.014173076923077,0.0010958164123006384,0.006000000000000005,1.0141736689390188,1.014767491858699,0.0010941125123491674,0.0060908704893152255,1.0147680816893014,Mirovanje
0.030076923076923088,0.0015171602248704632,0.007000000000000003,0.0301151635712489,0.01675,0.0014394844162461031,0.006,0.016811740403200836,-1.0142115384615384,0.0011491893206406624,0.006000000000000005,1.0142121895267358,1.0147978241818432,0.0011397862605408418,0.0060908704893152255,1.0147984642661432,Mirovanje
0.029740384615384623,0.001358698417800118,0.006000000000000002,0.0297714047109225,0.016653846153846154,0.0016971085748392469,0.008,0.016740094660149602,-1.014076923076923,0.0011153846153846108,0.006000000000000005,1.0140775364832808,1.014651959027953,0.0011042411102717864,0.0058975838826567095,1.014652559898063,Mirovanje
0.029894230769230777,0.0014204432490137152,0.006000000000000002,0.02992795837185845,0.016634615384615387,0.0015996255109080775,0.008,0.016711350357443616,-1.0140192307692308,0.0011264372804313404,0.004999999999999893,1.01401985642825,1.014598404162813,0.001139922856834695,0.005106068209528303,1.0145990445263813,Mirovanje
0.029855769230769245,0.0013616892028679305,0.006000000000000002,0.029886805681540368,0.016528846153846158,0.00148684443064725,0.007999999999999998,0.016595585603962928,-1.013826923076923,0.0011388447899609944,0.006000000000000005,1.013827562716203,1.0144030942647346,0.0011506018397605328,0.006031911078781427,1.0144037468081737,Mirovanje
0.030028846153846163,0.0033439288579604366,0.036,0.030214457823010188,0.016384615384615386,0.0014826411744151063,0.009,0.016451560599342732,-1.0138365384615384,0.0011611547379414145,0.006000000000000005,1.0138372034010192,1.0144200775188716,0.0011613071508856962,0.006013731238171394,1.0144207422503209,Mirovanje
0.030201923076923085,0.0034035609398108202,0.036,0.030393097647580847,0.016259615384615386,0.0012709414462371243,0.007000000000000001,0.016309211649107525,-1.01425,0.0013569621047937051,0.007000000000000117,1.014250907737407,1.014836351951127,0.0013466157257610663,0.007026015663077256,1.0148372453824233,Mirovanje
0.02971153846153847,0.0016271321924163486,0.009000000000000005,0.02975605949925287,0.0165,0.0012480754415067654,0.006,0.016547135471364594,-1.0142115384615384,0.001349309488099213,0.007000000000000117,1.0142124360234472,1.014782884311172,0.0013393516880930594,0.007026015663077256,1.0147837681761793,Mirovanje
0.029653846153846163,0.001472629978390511,0.007000000000000003,0.029690389535491628,0.016625000000000004,0.0013671102313330056,0.007000000000000001,0.016681115531780703,-1.0139711538461538,0.0011219551167598795,0.006000000000000005,1.0139717745654384,1.0145428977879516,0.0011166958245613621,0.005946017796214953,1.0145435123549598,Mirovanje
0.029884615384615395,0.001423076923076923,0.007000000000000003,0.029918478982317673,0.016278846153846158,0.0013619607667541363,0.006,0.016335720652324137,-1.014076923076923,0.0011984951116063693,0.006000000000000005,1.0140776313023043,1.0146496774557403,0.0012022896906096702,0.005983854277307188,1.0146503897705546,Mirovanje
0.029826923076923088,0.0013618589366427088,0.007000000000000003,0.02985799725366723,0.016403846153846154,0.0013834129394171308,0.007000000000000001,0.01646207763315433,-1.0140096153846154,0.0012364277974167555,0.006000000000000005,1.0140103692005096,1.0145826725182314,0.0012367182043782272,0.005950243767818719,1.0145834262623028,Mirovanje
0.029807692307692316,0.001373351620873625,0.008000000000000004,0.02983931325256356,0.01675,0.0013210572688919689,0.007000000000000001,0.01680201453123084,-1.013701923076923,0.0012776165285729758,0.0050000000000001155,1.0137027281969038,1.0142801763006186,0.0012796191326092893,0.005068217386513529,1.014280983486104,Mirovanje
0.029490384615384627,0.0014741046324652878,0.009000000000000005,0.02952720388439734,0.01655769230769231,0.001254430019792341,0.006,0.016605142854873887,-1.0138653846153844,0.0014213867301640355,0.006000000000000005,1.0138663809701642,1.0144311666668555,0.0014258663761381317,0.006071068466137142,1.0144321687525488,Mirovanje
0.14250000000000002,0.31285558231333405,0.9829999999999999,0.3437802574096066,0.016259615384615386,0.0019414268756791917,0.011000000000000001,0.016375110099453707,-0.8960480769230769,0.32665729453545783,1.0279999999999998,0.9537332668156066,1.0139304102734708,0.0022971653891743424,0.010491866081064893,1.0139330125043537,Mirovanje
0.6321249999999998,0.47612196820328423,0.9839999999999999,0.7913748443252219,0.01382692307692308,0.003064819946061293,0.011000000000000001,0.014162518246305036,-0.3846057692307691,0.49740380628336317,1.029,0.6287544387364348,1.0108399458171689,0.0030772268292171352,0.01243734949130304,1.0108446296956892,Mirovanje
1.0087980769230769,0.0017118355403366763,0.0129999999999999,1.0087995293340573,0.011701923076923079,0.0015925294810235052,0.006999999999999999,0.011809790592815516,0.009,0.0014073980356563067,0.006999999999999999,0.009109378092425917,1.0089083191695156,0.0017163386131167975,0.013017931604496935,1.0089097790722876,Mirovanje
1.0091634615384615,0.0017872980086145786,0.0129999999999999,1.0091650442511677,0.011586538461538462,0.0016791170809677426,0.009,0.011707574799774191,0.009096153846153846,0.0012973288442709946,0.006999999999999999,0.009188203138975375,1.0092731923611604,0.0017888835033502536,0.013017931604496935,1.0092747777107465,Mirovanje
1.0086826923076921,0.0016306229524380455,0.010000000000000009,1.0086840103284616,0.011192307692307694,0.0015509111656658427,0.008,0.01129925116647457,0.008990384615384615,0.0011888520020760516,0.004999999999999999,0.009068648444800615,1.0087867360527858,0.00163319252178064,0.010018944467861557,1.008788058094388,Mirovanje
1.008576923076923,0.0016153846153846203,0.010000000000000009,1.008578216714385,0.011,0.0013797993165116998,0.007,0.011086200708711988,0.008846153846153847,0.0013211972336398205,0.007,0.00894427190999916,1.008677507646022,0.0016151303144113826,0.010030295705638625,1.0086788007472562,Mirovanje
1.0091442307692307,0.001534339429594089,0.009000000000000119,1.0091453972011701,0.01098076923076923,0.0012933317828738749,0.007,0.01105667219374799,0.008711538461538462,0.0012532502123177782,0.007,0.008801223691143095,1.0092431769122159,0.0015343033945568398,0.009006543602050554,1.0092443431750158,Mirovanje
1.0088557692307691,0.001521754233358847,0.009000000000000119,1.0088569169342865,0.011076923076923076,0.0013846153846153847,0.006999999999999999,0.011163126113028762,0.008971153846153846,0.0012204722507262913,0.006,0.009053792235641032,1.0089581486580368,0.001523036822298318,0.009012513198712435,1.0089592981803654,Mirovanje
1.0084903846153845,0.0014999691811429625,0.007000000000000117,1.008491500097661,0.010990384615384614,0.001509554138885006,0.006999999999999999,0.011093570556511898,0.009144230769230767,0.0013965497955178493,0.006999999999999999,0.009250259871609429,1.0085938147089133,0.0015024365336704486,0.007075611076861055,1.0085949337492308,Mirovanje
1.009,0.0015932550136313764,0.007000000000000117,1.0090012579087988,0.010778846153846154,0.001506120403101642,0.007,0.010883562058302562,0.009134615384615383,0.0013232949283722133,0.006999999999999999,0.009229967913937062,1.00910091175086,0.001591413173971897,0.007075611076861055,1.0091021666274964,Mirovanje
1.0092115384615385,0.001529662336564943,0.006000000000000005,1.0092126977157834,0.010807692307692306,0.0013941976123378352,0.007,0.010897247358851683,0.008971153846153846,0.0011557276326828675,0.006,0.009045292018078117,1.0093109041736605,0.0015281539873557607,0.006042940195684299,1.0093120610289277,Mirovanje
1.0088846153846152,0.0015646804312929251,0.007000000000000117,1.0088858287163196,0.010826923076923076,0.001589885746332274,0.008,0.010943034314119644,0.00910576923076923,0.0011259036475954054,0.006,0.009175112659128078,1.0089856769032268,0.0015658483515702648,0.007032403924135178,1.0089868919252238,Mirovanje
1.0089711538461537,0.001540833508010608,0.007000000000000117,1.0089723303745939,0.010673076923076922,0.0016895738407402055,0.009,0.010805981249716786,0.009201923076923076,0.00099401872459832,0.005,0.009255455771514525,1.0090714662534295,0.0015401775871345899,0.006988930438461383,1.0090726416635454,Mirovanje
1.0090288461538461,0.0014574525376177064,0.006000000000000005,1.0090298987336608,0.010894230769230769,0.0015987872160266284,0.008,0.01101092115199199,0.008836538461538462,0.0012177420539913907,0.005999999999999999,0.008920050879468552,1.0091283464065839,0.0014576383236368903,0.0060325038072917,1.0091293991509558,Mirovanje
1.0088461538461537,0.0014595127662315693,0.007000000000000117,1.008847209595037,0.011000000000000001,0.0015191090506255001,0.008,0.011104399682454353,0.008634615384615383,0.0013802012973844703,0.007,0.008744228866031496,1.0089451560862495,0.001460667160989609,0.007029419152395411,1.0089462134021128,Mirovanje
1.0089711538461539,0.0015594422743726685,0.007000000000000117,1.0089723589642314,0.010932692307692308,0.0014227845333719253,0.007,0.011024884440350245,0.008673076923076922,0.0012437714643861635,0.007,0.008761805223196348,1.0090694292817628,0.0015573536900421218,0.007015223894947242,1.0090706310568842,Mirovanje
1.0088461538461537,0.0015978906213723835,0.007000000000000117,1.008847419278364,0.010961538461538464,0.0015927907108345119,0.008,0.011076655979685733,0.008875,0.0012456655619819037,0.006,0.00896199239523822,1.0089467712910354,0.0015930164453104396,0.007015223894947242,1.0089480288894963,Mirovanje
1.008326923076923,0.0015028326311202376,0.006000000000000005,1.0083280430037103,0.010855769230769231,0.0016951189499376938,0.009,0.010987317864071916,0.00898076923076923,0.001200807174288397,0.006,0.009060692790628863,1.0084274957333883,0.0014984873277933814,0.006042982128197982,1.0084286090821624,Mirovanje
1.0083365384615384,0.0013700826541818418,0.006000000000000005,1.0083374692646687,0.010567307692307692,0.0015736069729527268,0.008,0.01068383034165326,0.008644230769230769,0.0012779059586109044,0.007,0.008738178828037867,1.0084309988157325,0.0013684117000898458,0.005957667494935981,1.0084319272628555,Mirovanje
1.0085673076923076,0.001306525214488683,0.006000000000000005,1.0085681539459026,0.010442307692307692,0.001371600153925524,0.004999999999999999,0.01053200251248911,0.008471153846153847,0.001506120403101642,0.008,0.008604001752315382,1.008658990707048,0.0013090235911105616,0.005977290996517448,1.0086598401229836,Mirovanje
1.0086538461538461,0.0014660860425035377,0.007000000000000117,1.0086549116368941,0.010644230769230767,0.00126276763523291,0.004999999999999999,0.01071887264451028,0.008557692307692306,0.00139936058940203,0.008,0.008671349819509516,1.0087480700052525,0.0014657995670114134,0.0070547899947184245,1.008749134972463,Mirovanje
1.0089326923076922,0.0015582560708203674,0.008000000000000007,1.0089338956389713,0.010673076923076922,0.0012437714643861637,0.006,0.010745303088398134,0.008682692307692308,0.0012268190816789562,0.007,0.008768935555084824,1.009028015696449,0.001557266241850417,0.00801122824148548,1.0090292173859294,Mirovanje
1.0090961538461538,0.001464445489499684,0.006999999999999895,1.009097216480004,0.010846153846153846,0.0014058205294228514,0.006999999999999999,0.010936881850664047,0.009076923076923076,0.0012837168667906643,0.006,0.009167249398727055,1.0091970580696927,0.001464287309067856,0.006999378442451354,1.0091981203677731,Mirovanje
1.0090865384615384,0.0013017043334020283,0.006000000000000005,1.009087378049325,0.010971153846153846,0.0013760082371261637,0.006999999999999999,0.011057107007920987,0.009394230769230768,0.001235829441421438,0.006,0.009475169980208597,1.0091915972169394,0.0013019626425704873,0.0060409641686629545,1.009192437050536,Mirovanje
1.0091730769230767,0.001289322330143206,0.006000000000000005,1.0091739005436384,0.011201923076923078,0.0012662771577489212,0.006,0.01127326653909764,0.009192307692307692,0.001144190367741809,0.006,0.00926324415675698,1.0092785491403427,0.0012907418003774438,0.006049412752844541,1.0092793744891604,Mirovanje
1.0089711538461539,0.0013042587842645953,0.006000000000000005,1.00897199682876,0.011125,0.0013845819974607166,0.006,0.011210829242642684,0.009,0.0011929278784054476,0.005,0.009078715598754976,1.0090742716559702,0.001307836312276319,0.006027676200985876,1.0090751191828318,Mirovanje
1.0087980769230769,0.001258660824450312,0.008000000000000007,1.0087988621280108,0.010442307692307692,0.0014466600996042513,0.004999999999999999,0.010542040380524796,0.00919230769230769,0.001256344843927775,0.005,0.00927776498284598,1.0088958177095295,0.0012588794424549395,0.007977423754643276,1.0088966031111566,Mirovanje
1.0090288461538461,0.001540833508010617,0.009000000000000119,1.009030022615017,0.010548076923076922,0.0014733518020297726,0.007,0.01065047850134877,0.009134615384615383,0.001056642835985858,0.006,0.009195525667828474,1.009126955474393,0.0015377444714194653,0.008977312500549672,1.009128127109277,Mirovanje
1.0087980769230769,0.001654712429654189,0.007000000000000117,1.0087994340189346,0.010759615384615385,0.0014773624646886782,0.007,0.010860567345996391,0.008721153846153847,0.0010602678432397562,0.004999999999999999,0.00878536808037616,1.008894791229475,0.0016531552684959602,0.0070165162810440496,1.0088961456425074,Mirovanje
1.0089711538461539,0.0015717257221163363,0.008000000000000007,1.0089723780239896,0.010855769230769231,0.001311328372526011,0.007,0.010934683703349983,0.008644230769230769,0.001224103040776335,0.005999999999999999,0.008730472716076366,1.0090681736958762,0.0015712768666143366,0.008006811685258075,1.009069397056973,Mirovanje
1.0088365384615383,0.0015449083674785751,0.009000000000000119,1.0088377213788762,0.011115384615384617,0.0014630558924315566,0.008,0.011211258078035118,0.008865384615384615,0.0015003697769068868,0.008,0.008991448929185655,1.0089388989928498,0.0015442271715443558,0.009008727911122172,1.0089400807473463,Mirovanje
1.0085192307692308,0.0013081164470540312,0.006000000000000005,1.0085200791258446,0.01079807692307692,0.0016194717069055128,0.008,0.010918843979385083,0.009019230769230769,0.0013371954666301898,0.008,0.009117818565019562,1.008619545385336,0.0013108912651143977,0.006060891130921453,1.008620397260154,Mirovanje
1.008826923076923,0.0013828781837189805,0.008000000000000007,1.0088278708862692,0.010673076923076922,0.0013689012135813083,0.007,0.010760504706493165,0.008990384615384615,0.0009557034492143662,0.003999999999999999,0.009041038912391906,1.008924814911583,0.0013855607907525425,0.008027562229216745,1.008925766309433,Mirovanje
1.0089423076923076,0.001567867998006074,0.008000000000000007,1.0089435259029806,0.010990384615384614,0.0012822395695069886,0.006,0.011064930741206305,0.008913461538461539,0.0011189845750902649,0.006,0.00898342490795816,1.0090429657853341,0.001570438174548399,0.008051251624674238,1.0090441878713354,Mirovanje
1.0090096153846153,0.0014708395843327827,0.006999999999999895,1.0090106874100453,0.010894230769230769,0.001447267114458045,0.008,0.010989942954985989,0.008740384615384615,0.0011848011218026644,0.006,0.008820321815165075,1.0091080070420502,0.001474569222192685,0.007055796176574924,1.0091090844060264,Mirovanje
1.0086538461538461,0.0015551974322427524,0.006999999999999895,1.008655045097183,0.010673076923076922,0.0016316715573319028,0.009,0.010797079377170619,0.008567307692307692,0.001035563977492115,0.006,0.008629667076206002,1.0087485385997186,0.0015601121289099927,0.007072304059355217,1.0087497450195084,Mirovanje
1.0085480769230768,0.0015372290736426018,0.006999999999999895,1.0085492484447458,0.010788461538461537,0.0015912807911280201,0.008,0.010905185781227063,0.008807692307692306,0.0011272577607502187,0.006,0.008879535677396305,1.0086461122758772,0.001541414930988925,0.007072304059355217,1.0086472900718222,Mirovanje
1.0089038461538462,0.0013410617978162395,0.008000000000000007,1.0089047374409386,0.010653846153846153,0.0014194340067112256,0.008,0.010747987289219817,0.008836538461538462,0.0013452950557339635,0.007,0.008938357274646766,1.0090006863806658,0.0013407369812912344,0.008049250400236074,1.0090015771505552,Mirovanje
1.009076923076923,0.0014052943004957696,0.008999999999999897,1.0090779016203166,0.010490384615384613,0.001308222460408458,0.005999999999999999,0.010571642038236795,0.008711538461538462,0.0013058527785665352,0.005999999999999999,0.0088088679094509,1.0091707433431478,0.0014064451396273287,0.009007664674024474,1.009171723398794,Mirovanje
1.0089326923076922,0.001648218286729668,0.008000000000000007,1.0089340385925976,0.010884615384615385,0.0014163040491939976,0.006,0.010976373227563339,0.008846153846153846,0.0013356734887834873,0.005999999999999999,0.008946421717002924,1.0090320586445836,0.001648662795137257,0.008017197944516719,1.009033405523097,Mirovanje
1.008903846153846,0.0016497041154822552,0.007000000000000117,1.008905194905692,0.011057692307692307,0.0014265809251825408,0.006,0.01114933595814981,0.008855769230769231,0.0013113283725260105,0.005999999999999999,0.008952331024332755,1.0090051636981274,0.0016504124588675943,0.007048903477753665,1.0090065134729156,Mirovanje
1.0091442307692307,0.0014703366257083534,0.007000000000000117,1.0091453019187155,0.011153846153846155,0.0013781902205514552,0.006,0.011238669507895154,0.008807692307692306,0.0011100668992047545,0.003999999999999999,0.008877369672808062,1.0092458543829166,0.001470095278474563,0.00700270804310521,1.0092469250729628,Mirovanje
1.0091442307692307,0.0015026788209904613,0.006000000000000005,1.0091453495599438,0.011019230769230769,0.001393534308807101,0.006,0.01110699710161953,0.008807692307692306,0.0011100668992047545,0.004999999999999999,0.008877369672808062,1.0092444008429229,0.0014996608262548023,0.006001324944512554,1.0092455150335742,Mirovanje
1.0090576923076922,0.0014988901219346118,0.006000000000000005,1.00905880555938,0.010442307692307692,0.0015180131439896836,0.007,0.010552068699840513,0.008798076923076924,0.0012662771577489212,0.006,0.008888735308502297,1.0091520122275215,0.001498353529114538,0.0060153699862117715,1.0091531245783039,Mirovanje
1.0090096153846153,0.0015719610015940495,0.007000000000000117,1.0090108398823077,0.010096153846153847,0.0015223920371549829,0.008,0.01021028892833107,0.008740384615384615,0.0012557191649814757,0.006,0.008830127623435227,1.0090999052961027,0.0015739394023435848,0.0069963201908960215,1.0091011327680919,Mirovanje
1.0088365384615383,0.0015386718606234973,0.007000000000000117,1.0088377118477252,0.010259615384615386,0.0015441900559821262,0.008,0.010375173770555883,0.008644230769230769,0.0011760287577492544,0.004999999999999999,0.008723862059361624,1.0089276040756139,0.0015390192964621918,0.0069963201908960215,1.0089287778858098,Mirovanje
1.0086442307692307,0.0015185916377124524,0.007000000000000117,1.0086453739469663,0.010538461538461536,0.0015374996993312833,0.007,0.010650027085556023,0.008615384615384615,0.0011954054052246193,0.004999999999999999,0.008697921944570792,1.00873795339788,0.0015194348779310719,0.007013292617086497,1.0087390977391986,Mirovanje
1.0083942307692306,0.001521754233358849,0.007000000000000117,1.0083953789980473,0.010153846153846152,0.0013211972336398207,0.007,0.01023944109051631,0.008875,0.0014720962290870482,0.006,0.008996259906632996,1.0084863379316742,0.0015249380086340173,0.00704243976254193,1.0084874908647947,Mirovanje
1.0085480769230768,0.0014201828680484156,0.008000000000000007,1.0085490768349428,0.010230769230769229,0.0013025918632212385,0.007,0.010313359521290073,0.008903846153846153,0.0015536509778411448,0.007,0.009038379705030526,1.0086413024506344,0.0014216425747844003,0.007981446883891907,1.0086423043264263,Mirovanje
1.0090192307692307,0.0016697579812584504,0.008999999999999897,1.0090206123533088,0.010624999999999999,0.0014818614852739986,0.008,0.010727839412553604,0.008644230769230769,0.0015249102699375287,0.008,0.00877770339685028,1.0091144401307577,0.0016665799764860624,0.008999181569436354,1.0091158163309257,Mirovanje
1.008903846153846,0.001620299300279175,0.008999999999999897,1.0089051472531232,0.010432692307692308,0.0014660545107199685,0.008,0.010535197417010497,0.008692307692307692,0.0014549446399521335,0.008,0.0088132330573449,1.008997345855905,0.0016173036586358785,0.008999181569436354,1.0089986420285135,Mirovanje
1.0088461538461537,0.0013989641138056335,0.006000000000000005,1.0088471238154813,0.010624999999999999,0.0013529703788900357,0.007,0.010710796135029078,0.008807692307692308,0.001394197612337835,0.007,0.008917355592844258,1.0089424211486253,0.0013965751445411052,0.006000275039564684,1.008943387715775,Mirovanje
1.0087307692307692,0.0014493418216474528,0.007000000000000117,1.0087318104355663,0.010826923076923076,0.0014239861959971848,0.009000000000000001,0.010920164833920777,0.008759615384615383,0.001403944938568655,0.007,0.008871410433348414,1.0088288868229265,0.0014472108716816641,0.007018561304980908,1.0088299248672654,Mirovanje
1.0084615384615385,0.0014539275516489197,0.007000000000000117,1.0084625865452512,0.01056730769230769,0.0016038680592490426,0.009000000000000001,0.01068832936503103,0.008557692307692306,0.0012233853021976094,0.004999999999999999,0.008644696017256433,1.008555228780885,0.001452623186199095,0.007003782136864922,1.0085562748877153,Mirovanje
1.008826923076923,0.0016019357742594132,0.007000000000000117,1.008828194948514,0.010644230769230767,0.0016751479224624247,0.007,0.010775238708760435,0.008519230769230769,0.0011600793178350515,0.004999999999999999,0.008597853041491051,1.0089211063198498,0.0015990595863645157,0.007003782136864922,1.0089223735100885,Mirovanje
1.0090288461538461,0.0015899729724918098,0.006000000000000005,1.00903009884969,0.010807692307692306,0.00153219879131093,0.006,0.010915761363910726,0.008711538461538462,0.001230017799457491,0.004999999999999999,0.008797945564382981,1.0091262452394738,0.0015872132196389167,0.006025155813607741,1.0091274934699395,Mirovanje
1.0089423076923076,0.0016514965420497685,0.006999999999999895,1.0089436593250922,0.010605769230769231,0.0013331445564094028,0.004999999999999999,0.010689228942473606,0.008798076923076922,0.0013614175848124944,0.006999999999999999,0.008902786944806406,1.0090382047016215,0.0016517795268636204,0.007008820982377317,1.009039556669151,Mirovanje
