#Format version: 1.0
time[us],accX[g],accY[g],accZ[g],
351240025,0.018,-0.025,-1.014,
351278548,0.018,-0.025,-1.013,
351317071,0.018,-0.025,-1.013,
351355595,0.019,-0.025,-1.013,
351394118,0.019,-0.025,-1.013,
351432642,0.019,-0.025,-1.014,
351471165,0.019,-0.025,-1.014,
351509688,0.019,-0.025,-1.013,
351548212,0.019,-0.026,-1.013,
351586735,0.018,-0.025,-1.014,
351625258,0.019,-0.025,-1.013,
351663781,0.018,-0.025,-1.013,
351702305,0.019,-0.025,-1.013,
351740828,0.019,-0.025,-1.014,
351779351,0.018,-0.025,-1.014,
351817875,0.018,-0.025,-1.014,
351856398,0.018,-0.025,-1.013,
351894921,0.019,-0.025,-1.014,
351933444,0.018,-0.026,-1.013,
351971968,0.019,-0.025,-1.013,
352010492,0.018,-0.025,-1.013,
352049015,0.019,-0.025,-1.014,
352087538,0.018,-0.025,-1.014,
352126061,0.018,-0.025,-1.013,
352164584,0.019,-0.025,-1.014,
352203108,0.018,-0.025,-1.014,
352241632,0.018,-0.026,-1.013,
352280155,0.018,-0.025,-1.013,
352318678,0.018,-0.025,-1.013,
352357201,0.018,-0.025,-1.014,
352395725,0.018,-0.025,-1.014,
352434248,0.018,-0.025,-1.013,
352472771,0.018,-0.025,-1.013,
352511295,0.018,-0.025,-1.013,
352549818,0.018,-0.025,-1.014,
352588341,0.018,-0.025,-1.014,
352626865,0.018,-0.025,-1.014,
352665388,0.018,-0.025,-1.013,
352703911,0.018,-0.025,-1.014,
352742435,0.018,-0.025,-1.014,
352780958,0.018,-0.025,-1.013,
352819482,0.019,-0.026,-1.014,
352858004,0.018,-0.025,-1.014,
352896528,0.018,-0.025,-1.013,
352935051,0.018,-0.025,-1.013,
352973575,0.018,-0.025,-1.013,
353012098,0.018,-0.025,-1.014,
353050621,0.018,-0.026,-1.014,
353089144,0.018,-0.025,-1.013,
353127668,0.018,-0.025,-1.013,
353166191,0.018,-0.026,-1.013,
353204715,0.018,-0.025,-1.013,
353243238,0.018,-0.025,-1.013,
353281762,0.018,-0.025,-1.013,
353320285,0.019,-0.025,-1.014,
353358808,0.019,-0.025,-1.013,
353397331,0.018,-0.025,-1.014,
353435855,0.018,-0.026,-1.013,
353474378,0.018,-0.025,-1.013,
353512902,0.018,-0.025,-1.013,
353551425,0.018,-0.025,-1.013,
353589948,0.018,-0.025,-1.014,
353628471,0.018,-0.026,-1.014,
353666995,0.018,-0.025,-1.013,
353705518,0.018,-0.025,-1.013,
353744042,0.018,-0.025,-1.013,
353782565,0.018,-0.025,-1.013,
353821088,0.018,-0.025,-1.013,
353859611,0.018,-0.025,-1.014,
353898135,0.018,-0.025,-1.013,
353936658,0.018,-0.026,-1.013,
353975181,0.018,-0.025,-1.014,
354013705,0.018,-0.025,-1.013,
354052228,0.018,-0.025,-1.013,
354090751,0.018,-0.025,-1.013,
354129275,0.018,-0.025,-1.013,
354167798,0.018,-0.025,-1.013,
354206321,0.018,-0.025,-1.013,
354244845,0.018,-0.025,-1.014,
354283368,0.018,-0.025,-1.014,
354321891,0.018,-0.026,-1.013,
354360415,0.018,-0.026,-1.013,
354398938,0.018,-0.025,-1.013,
354437461,0.018,-0.026,-1.014,
354475985,0.018,-0.026,-1.013,
354514508,0.018,-0.025,-1.014,
354553032,0.018,-0.025,-1.013,
354591555,0.018,-0.025,-1.013,
354630078,0.019,-0.025,-1.013,
354668601,0.018,-0.026,-1.013,
354707124,0.018,-0.025,-1.013,
354745648,0.017,-0.025,-1.014,
354784172,0.019,-0.025,-1.013,
354822695,0.018,-0.025,-1.012,
354861218,0.018,-0.026,-1.014,
354899741,0.019,-0.025,-1.015,
354938265,0.018,-0.025,-1.013,
354976788,0.018,-0.025,-1.013,
355015311,0.019,-0.025,-1.014,
355053835,0.018,-0.025,-1.014,
355092358,0.018,-0.025,-1.013,
355130882,0.018,-0.026,-1.014,
355169405,0.018,-0.025,-1.014,
355207928,0.018,-0.025,-1.014,
355246452,0.018,-0.025,-1.014,
355284975,0.018,-0.025,-1.013,
355323498,0.018,-0.025,-1.013,
355362021,0.018,-0.025,-1.013,
355400545,0.018,-0.025,-1.013,
355439068,0.018,-0.025,-1.014,
355477591,0.018,-0.025,-1.013,
355516115,0.019,-0.025,-1.013,
355554638,0.018,-0.025,-1.014,
355593161,0.018,-0.025,-1.013,
355631685,0.018,-0.025,-1.013,
355670208,0.018,-0.026,-1.014,
355708732,0.018,-0.026,-1.012,
355747255,0.018,-0.025,-1.016,
355785778,0.018,-0.025,-1.011,
355824302,0.019,-0.026,-1.014,
355862825,0.018,-0.026,-1.012,
355901348,0.018,-0.026,-1.015,
355939871,0.018,-0.026,-1.013,
355978395,0.019,-0.025,-1.015,
356016918,0.018,-0.026,-1.012,
356055442,0.019,-0.025,-1.014,
356093965,0.018,-0.026,-1.013,
356132488,0.019,-0.026,-1.013,
356171012,0.018,-0.025,-1.013,
356209535,0.018,-0.025,-1.014,
356248058,0.018,-0.025,-1.013,
356286581,0.018,-0.025,-1.014,
356325105,0.018,-0.026,-1.013,
356363628,0.018,-0.025,-1.012,
356402152,0.018,-0.026,-1.014,
356440675,0.018,-0.025,-1.013,
356479198,0.018,-0.025,-1.013,
356517722,0.018,-0.025,-1.014,
356556245,0.018,-0.025,-1.013,
356594768,0.018,-0.026,-1.013,
356633292,0.018,-0.025,-1.014,
356671815,0.019,-0.025,-1.013,
356710338,0.018,-0.026,-1.013,
356748861,0.018,-0.026,-1.013,
356787385,0.018,-0.025,-1.013,
356825908,0.018,-0.025,-1.014,
356864432,0.018,-0.026,-1.013,
356902955,0.019,-0.025,-1.014,
356941478,0.018,-0.025,-1.013,
356980004,0.018,-0.025,-1.013,
357018525,0.018,-0.025,-1.013,
357057049,0.018,-0.025,-1.013,
357095571,0.018,-0.025,-1.013,
357134095,0.018,-0.025,-1.014,
357172619,0.018,-0.025,-1.013,
357211142,0.018,-0.025,-1.014,
357249665,0.018,-0.026,-1.013,
357288188,0.018,-0.025,-1.013,
357326712,0.018,-0.025,-1.013,
357365235,0.019,-0.025,-1.013,
357403758,0.018,-0.025,-1.013,
357442282,0.018,-0.026,-1.013,
357480805,0.018,-0.026,-1.013,
357519328,0.018,-0.026,-1.013,
357557852,0.018,-0.025,-1.013,
357596375,0.018,-0.025,-1.013,
357634898,0.018,-0.025,-1.013,
357673422,0.018,-0.025,-1.013,
357711945,0.018,-0.025,-1.013,
357750468,0.017,-0.025,-1.014,
357788992,0.018,-0.025,-1.013,
357827515,0.018,-0.026,-1.014,
357866039,0.018,-0.026,-1.013,
357904562,0.018,-0.026,-1.013,
357943085,0.018,-0.026,-1.014,
357981609,0.018,-0.025,-1.013,
358020132,0.018,-0.025,-1.013,
358058655,0.018,-0.025,-1.014,
358097179,0.018,-0.025,-1.013,
358135702,0.018,-0.025,-1.013,
358174226,0.018,-0.025,-1.013,
358212749,0.018,-0.025,-1.013,
358251272,0.019,-0.025,-1.013,
358289795,0.019,-0.026,-1.013,
358328319,0.018,-0.025,-1.013,
358366842,0.018,-0.025,-1.013,
358405365,0.018,-0.025,-1.013,
358443888,0.018,-0.025,-1.013,
358482412,0.018,-0.025,-1.014,
358520936,0.018,-0.025,-1.014,
358559458,0.018,-0.025,-1.014,
358597982,0.018,-0.025,-1.013,
358636505,0.018,-0.025,-1.013,
358675029,0.018,-0.026,-1.013,
358713552,0.018,-0.025,-1.013,
358752075,0.018,-0.025,-1.013,
358790599,0.019,-0.026,-1.013,
358829122,0.018,-0.026,-1.013,
358867645,0.018,-0.026,-1.013,
358906169,0.018,-0.025,-1.013,
358944692,0.018,-0.026,-1.014,
358983216,0.018,-0.026,-1.014,
359021738,0.018,-0.025,-1.014,
359060262,0.018,-0.025,-1.014,
359098785,0.018,-0.025,-1.014,
359137309,0.018,-0.025,-1.014,
359175832,0.018,-0.026,-1.013,
359214356,0.018,-0.025,-1.013,
359252879,0.018,-0.025,-1.013,
359291402,0.018,-0.026,-1.013,
359329926,0.018,-0.025,-1.013,
359368448,0.019,-0.025,-1.013,
359406972,0.018,-0.025,-1.013,
359445495,0.018,-0.025,-1.013,
359484019,0.018,-0.025,-1.013,
359522542,0.018,-0.025,-1.013,
359561065,0.018,-0.025,-1.013,
359599589,0.018,-0.026,-1.013,
359638112,0.018,-0.025,-1.013,
359676635,0.019,-0.025,-1.014,
359715159,0.018,-0.026,-1.014,
359753682,0.018,-0.025,-1.013,
359792205,0.018,-0.025,-1.013,
359830728,0.018,-0.025,-1.014,
359869252,0.018,-0.025,-1.013,
359907776,0.018,-0.025,-1.013,
359946299,0.018,-0.025,-1.014,
359984822,0.018,-0.026,-1.013,
360023346,0.018,-0.025,-1.013,
360061869,0.018,-0.025,-1.013,
360100392,0.018,-0.025,-1.013,
360138916,0.018,-0.025,-1.013,
360177439,0.018,-0.025,-1.013,
360215962,0.019,-0.025,-1.013,
360254485,0.018,-0.025,-1.014,
360293009,0.018,-0.025,-1.014,
360331532,0.018,-0.025,-1.013,
360370055,0.018,-0.025,-1.013,
360408579,0.018,-0.025,-1.013,
360447102,0.018,-0.025,-1.013,
360485626,0.018,-0.025,-1.013,
360524149,0.018,-0.025,-1.013,
360562672,0.018,-0.025,-1.014,
360601196,0.018,-0.026,-1.014,
360639718,0.018,-0.026,-1.013,
360678242,0.018,-0.025,-1.013,
360716765,0.018,-0.025,-1.013,
360755289,0.018,-0.025,-1.013,
360793812,0.018,-0.025,-1.013,
360832336,0.018,-0.025,-1.014,
360870859,0.018,-0.025,-1.013,
360909382,0.018,-0.025,-1.013,
360947906,0.018,-0.026,-1.013,
360986429,0.018,-0.025,-1.013,
361024952,0.018,-0.025,-1.014,
361063476,0.018,-0.025,-1.014,
361101999,0.018,-0.026,-1.014,
361140522,0.018,-0.026,-1.014,
361179045,0.018,-0.025,-1.013,
361217569,0.018,-0.026,-1.014,
361256092,0.018,-0.026,-1.014,
361294616,0.018,-0.025,-1.013,
361333139,0.018,-0.026,-1.014,
361371662,0.018,-0.026,-1.013,
361410186,0.018,-0.025,-1.014,
361448709,0.018,-0.025,-1.013,
361487232,0.019,-0.025,-1.013,
361525756,0.019,-0.025,-1.014,
361564279,0.018,-0.025,-1.014,
361602802,0.018,-0.025,-1.013,
361641326,0.018,-0.025,-1.013,
361679849,0.018,-0.025,-1.013,
361718372,0.018,-0.025,-1.014,
361756896,0.018,-0.025,-1.013,
361795419,0.018,-0.026,-1.013,
361833943,0.018,-0.025,-1.013,
361872466,0.018,-0.026,-1.013,
361910989,0.018,-0.026,-1.013,
361949512,0.018,-0.025,-1.013,
361988036,0.018,-0.025,-1.013,
362026559,0.019,-0.025,-1.013,
362065083,0.018,-0.025,-1.013,
362103606,0.018,-0.025,-1.014,
362142129,0.018,-0.025,-1.013,
362180653,0.018,-0.025,-1.014,
362219176,0.018,-0.025,-1.013,
362257700,0.018,-0.025,-1.013,
362296222,0.018,-0.025,-1.013,
362334746,0.019,-0.025,-1.014,
362373269,0.018,-0.025,-1.013,
362411792,0.018,-0.025,-1.013,
362450316,0.018,-0.025,-1.013,
362488839,0.019,-0.026,-1.014,
362527363,0.018,-0.026,-1.013,
362565886,0.019,-0.026,-1.014,
362604409,0.018,-0.025,-1.013,
362642933,0.018,-0.025,-1.014,
362681456,0.018,-0.025,-1.013,
362719980,0.018,-0.025,-1.014,
362758503,0.018,-0.025,-1.013,
362797026,0.018,-0.025,-1.013,
362835549,0.018,-0.026,-1.014,
362874072,0.018,-0.025,-1.013,
362912596,0.018,-0.025,-1.013,
362951120,0.018,-0.026,-1.013,
362989643,0.018,-0.026,-1.013,
363028166,0.018,-0.025,-1.013,
363066690,0.018,-0.025,-1.013,
363105213,0.018,-0.025,-1.013,
363143736,0.018,-0.025,-1.013,
363182259,0.018,-0.026,-1.013,
363220782,0.018,-0.025,-1.014,
363259306,0.019,-0.026,-1.014,
363297830,0.018,-0.026,-1.013,
363336353,0.018,-0.025,-1.013,
363374876,0.018,-0.026,-1.013,
363413400,0.018,-0.026,-1.013,
363451923,0.018,-0.025,-1.014,
363490446,0.019,-0.025,-1.014,
363528969,0.018,-0.025,-1.013,
363567493,0.018,-0.025,-1.013,
363606016,0.018,-0.026,-1.013,
363644540,0.018,-0.025,-1.013,
363683063,0.017,-0.025,-1.014,
363721586,0.018,-0.025,-1.013,
363760109,0.018,-0.025,-1.013,
363798633,0.018,-0.025,-1.013,
363837156,0.019,-0.025,-1.013,
363875679,0.018,-0.025,-1.013,
363914203,0.018,-0.025,-1.013,
363952726,0.018,-0.025,-1.013,
363991250,0.018,-0.025,-1.013,
364029773,0.018,-0.025,-1.014,
364068296,0.018,-0.025,-1.013,
364106820,0.018,-0.026,-1.013,
364145343,0.017,-0.025,-1.013,
364183866,0.018,-0.025,-1.014,
364222390,0.018,-0.025,-1.013,
364260913,0.018,-0.026,-1.013,
364299437,0.018,-0.026,-1.013,
364337960,0.018,-0.025,-1.013,
364376483,0.018,-0.026,-1.013,
364415006,0.018,-0.025,-1.014,
364453530,0.018,-0.025,-1.014,
364492053,0.018,-0.025,-1.013,
364530576,0.018,-0.026,-1.013,
364569100,0.018,-0.025,-1.013,
364607623,0.018,-0.025,-1.013,
364646147,0.018,-0.026,-1.013,
364684670,0.018,-0.025,-1.013,
364723193,0.018,-0.026,-1.013,
364761717,0.018,-0.025,-1.013,
364800240,0.018,-0.025,-1.013,
364838763,0.018,-0.025,-1.014,
364877286,0.018,-0.025,-1.014,
364915810,0.019,-0.025,-1.013,
364954333,0.018,-0.025,-1.014,
364992856,0.018,-0.025,-1.014,
365031380,0.019,-0.026,-1.013,
365069903,0.018,-0.025,-1.013,
365108429,0.018,-0.025,-1.013,
365146950,0.018,-0.025,-1.013,
365185473,0.018,-0.025,-1.013,
365223996,0.018,-0.025,-1.014,
365262520,0.018,-0.025,-1.013,
365301043,0.018,-0.025,-1.013,
365339567,0.018,-0.025,-1.013,
365378090,0.018,-0.025,-1.013,
365416613,0.018,-0.025,-1.013,
365455137,0.018,-0.025,-1.014,
365493660,0.018,-0.026,-1.014,
365532184,0.018,-0.025,-1.014,
365570706,0.018,-0.025,-1.014,
365609230,0.018,-0.026,-1.014,
365647753,0.018,-0.026,-1.013,
365686277,0.018,-0.026,-1.013,
365724800,0.019,-0.026,-1.013,
365763323,0.018,-0.025,-1.013,
365801847,0.018,-0.025,-1.014,
365840370,0.018,-0.025,-1.014,
365878893,0.018,-0.026,-1.013,
365917416,0.018,-0.025,-1.013,
365955940,0.019,-0.026,-1.013,
365994464,0.018,-0.026,-1.013,
366032987,0.018,-0.026,-1.014,
366071510,0.018,-0.025,-1.014,
366110033,0.018,-0.025,-1.013,
366148557,0.018,-0.025,-1.013,
366187080,0.019,-0.025,-1.013,
366225603,0.018,-0.026,-1.013,
366264127,0.019,-0.025,-1.013,
366302650,0.018,-0.025,-1.013,
366341173,0.018,-0.025,-1.013,
366379697,0.018,-0.025,-1.013,
366418220,0.018,-0.025,-1.014,
366456743,0.018,-0.025,-1.014,
366495267,0.018,-0.025,-1.014,
366533790,0.018,-0.025,-1.014,
366572313,0.018,-0.026,-1.014,
366610837,0.018,-0.025,-1.014,
366649360,0.019,-0.026,-1.013,
366687884,0.018,-0.025,-1.013,
366726407,0.018,-0.025,-1.013,
366764931,0.018,-0.025,-1.014,
366803454,0.018,-0.025,-1.014,
366841977,0.019,-0.025,-1.013,
366880500,0.019,-0.025,-1.013,
366919024,0.018,-0.025,-1.013,
366957547,0.018,-0.026,-1.014,
366996070,0.018,-0.025,-1.013,
367034593,0.018,-0.025,-1.013,
367073117,0.018,-0.025,-1.013,
367111640,0.018,-0.025,-1.013,
367150163,0.018,-0.025,-1.014,
367188687,0.018,-0.025,-1.014,
367227210,0.018,-0.025,-1.014,
367265734,0.019,-0.025,-1.013,
367304257,0.018,-0.025,-1.013,
367342780,0.018,-0.026,-1.013,
367381304,0.018,-0.025,-1.013,
367419827,0.018,-0.025,-1.013,
367458351,0.018,-0.026,-1.014,
367496874,0.018,-0.025,-1.013,
367535397,0.018,-0.025,-1.013,
367573920,0.018,-0.025,-1.013,
367612443,0.019,-0.025,-1.014,
367650967,0.019,-0.025,-1.014,
367689491,0.018,-0.026,-1.013,
367728014,0.018,-0.025,-1.013,
367766537,0.018,-0.025,-1.013,
367805060,0.018,-0.025,-1.014,
367843584,0.018,-0.025,-1.014,
367882108,0.018,-0.025,-1.013,
367920631,0.018,-0.025,-1.013,
367959154,0.018,-0.025,-1.014,
367997677,0.018,-0.025,-1.013,
368036201,0.018,-0.025,-1.013,
368074724,0.019,-0.025,-1.014,
368113248,0.018,-0.025,-1.013,
368151771,0.019,-0.025,-1.013,
368190294,0.019,-0.025,-1.014,
368228817,0.018,-0.025,-1.013,
368267341,0.018,-0.026,-1.013,
368305864,0.018,-0.025,-1.013,
368344387,0.018,-0.025,-1.014,
368382911,0.018,-0.025,-1.013,
368421434,0.018,-0.026,-1.013,
368459958,0.018,-0.025,-1.013,
368498480,0.019,-0.026,-1.014,
368537004,0.018,-0.026,-1.013,
368575527,0.018,-0.025,-1.014,
368614051,0.018,-0.025,-1.013,
368652575,0.018,-0.026,-1.014,
368691098,0.018,-0.025,-1.014,
368729621,0.018,-0.026,-1.013,
368768144,0.018,-0.025,-1.013,
368806668,0.018,-0.026,-1.013,
368845191,0.018,-0.025,-1.013,
368883714,0.019,-0.025,-1.013,
368922237,0.018,-0.025,-1.013,
368960761,0.018,-0.025,-1.013,
368999284,0.018,-0.025,-1.013,
369037808,0.019,-0.025,-1.013,
369076331,0.018,-0.025,-1.013,
369114854,0.018,-0.025,-1.013,
369153378,0.019,-0.025,-1.014,
369191901,0.018,-0.025,-1.013,
369230425,0.018,-0.025,-1.013,
369268948,0.018,-0.025,-1.014,
369307471,0.018,-0.025,-1.013,
369345994,0.018,-0.025,-1.013,
369384518,0.018,-0.026,-1.014,
369423041,0.018,-0.025,-1.013,
369461565,0.018,-0.025,-1.013,
369500088,0.018,-0.025,-1.014,
369538611,0.019,-0.026,-1.014,
369577134,0.018,-0.025,-1.013,
369615658,0.018,-0.025,-1.014,
369654181,0.018,-0.025,-1.014,
369692705,0.018,-0.025,-1.014,
369731228,0.019,-0.025,-1.014,
369769751,0.018,-0.025,-1.013,
369808274,0.019,-0.025,-1.013,
369846798,0.018,-0.025,-1.014,
369885321,0.018,-0.025,-1.014,
369923845,0.018,-0.025,-1.013,
369962368,0.018,-0.026,-1.014,
370000891,0.018,-0.025,-1.013,
370039415,0.019,-0.025,-1.014,
370077938,0.018,-0.025,-1.014,
370116461,0.018,-0.026,-1.013,
370154984,0.018,-0.025,-1.014,
370193508,0.018,-0.025,-1.013,
370232032,0.018,-0.026,-1.013,
370270555,0.018,-0.025,-1.013,
370309078,0.018,-0.025,-1.013,
370347601,0.018,-0.025,-1.013,
370386125,0.018,-0.026,-1.013,
370424648,0.018,-0.025,-1.013,
370463171,0.018,-0.025,-1.014,
370501694,0.018,-0.025,-1.014,
370540218,0.018,-0.025,-1.013,
370578742,0.018,-0.026,-1.013,
370617265,0.018,-0.025,-1.013,
370655788,0.018,-0.025,-1.013,
370694311,0.019,-0.025,-1.013,
370732834,0.018,-0.025,-1.014,
370771358,0.019,-0.025,-1.014,
370809881,0.018,-0.025,-1.014,
370848404,0.018,-0.025,-1.014,
370886928,0.018,-0.026,-1.013,
370925451,0.018,-0.025,-1.014,
370963975,0.018,-0.025,-1.014,
371002498,0.018,-0.025,-1.014,
371041022,0.019,-0.025,-1.014,
371079545,0.018,-0.025,-1.013,
371118068,0.018,-0.025,-1.013,
371156591,0.018,-0.025,-1.014,
371195115,0.018,-0.025,-1.014,
371233639,0.018,-0.025,-1.013,
371272162,0.018,-0.025,-1.013,
371310685,0.018,-0.025,-1.014,
371349208,0.018,-0.025,-1.013,
371387732,0.018,-0.025,-1.013,
371426255,0.018,-0.025,-1.013,
371464778,0.018,-0.025,-1.013,
371503302,0.018,-0.026,-1.013,
371541825,0.018,-0.026,-1.013,
371580348,0.018,-0.025,-1.013,
371618871,0.018,-0.025,-1.013,
371657395,0.019,-0.026,-1.013,
371695918,0.018,-0.025,-1.014,
371734442,0.019,-0.025,-1.014,
371772965,0.018,-0.025,-1.013,
371811489,0.018,-0.025,-1.013,
371850012,0.018,-0.025,-1.014,
371888535,0.018,-0.025,-1.013,
371927058,0.018,-0.025,-1.014,
371965581,0.018,-0.025,-1.014,
372004105,0.018,-0.025,-1.013,
372042628,0.018,-0.026,-1.013,
372081152,0.018,-0.025,-1.013,
372119675,0.018,-0.025,-1.014,
372158199,0.018,-0.026,-1.014,
372196722,0.018,-0.025,-1.013,
372235245,0.018,-0.025,-1.014,
372273768,0.018,-0.025,-1.013,
372312292,0.018,-0.025,-1.014,
372350815,0.018,-0.025,-1.013,
372389338,0.018,-0.025,-1.014,
372427862,0.018,-0.025,-1.013,
372466385,0.018,-0.025,-1.013,
372504908,0.018,-0.025,-1.013,
372543432,0.018,-0.026,-1.013,
372581955,0.018,-0.025,-1.013,
372620478,0.018,-0.025,-1.013,
372659002,0.018,-0.025,-1.013,
372697525,0.018,-0.024,-1.014,
372736048,0.018,-0.025,-1.013,
372774572,0.018,-0.025,-1.013,
372813095,0.018,-0.025,-1.013,
372851618,0.018,-0.025,-1.013,
372890142,0.018,-0.025,-1.013,
372928665,0.019,-0.026,-1.014,
372967188,0.018,-0.026,-1.013,
373005712,0.018,-0.025,-1.014,
373044235,0.018,-0.025,-1.013,
373082759,0.018,-0.025,-1.013,
373121282,0.019,-0.025,-1.014,
373159805,0.018,-0.025,-1.013,
373198329,0.019,-0.025,-1.013,
373236852,0.018,-0.025,-1.013,
373275375,0.019,-0.025,-1.013,
373313898,0.018,-0.025,-1.013,
373352422,0.018,-0.025,-1.013,
373390945,0.018,-0.025,-1.013,
373429469,0.019,-0.025,-1.013,
373467992,0.019,-0.025,-1.013,
373506516,0.018,-0.025,-1.014,
373545039,0.018,-0.025,-1.014,
373583562,0.019,-0.025,-1.013,
373622085,0.018,-0.026,-1.013,
373660609,0.018,-0.026,-1.013,
373699132,0.018,-0.025,-1.014,
373737656,0.018,-0.025,-1.014,
373776178,0.019,-0.025,-1.014,
373814702,0.018,-0.025,-1.013,
373853226,0.018,-0.025,-1.013,
373891749,0.018,-0.026,-1.013,
373930272,0.019,-0.026,-1.014,
373968795,0.018,-0.025,-1.014,
374007319,0.018,-0.025,-1.013,
374045842,0.018,-0.025,-1.013,
374084366,0.018,-0.025,-1.013,
374122889,0.018,-0.025,-1.014,
374161412,0.019,-0.025,-1.014,
374199935,0.019,-0.025,-1.014,
374238459,0.018,-0.025,-1.013,
374276982,0.019,-0.025,-1.014,
374315505,0.018,-0.026,-1.014,
374354029,0.018,-0.025,-1.013,
374392552,0.018,-0.026,-1.013,
374431076,0.018,-0.025,-1.013,
374469599,0.018,-0.025,-1.013,
374508122,0.019,-0.026,-1.013,
374546646,0.018,-0.025,-1.014,
374585169,0.018,-0.025,-1.013,
374623692,0.018,-0.025,-1.014,
374662216,0.018,-0.025,-1.013,
374700739,0.018,-0.025,-1.013,
374739262,0.018,-0.025,-1.013,
374777786,0.018,-0.025,-1.013,
374816309,0.018,-0.025,-1.014,
374854832,0.018,-0.025,-1.013,
374893356,0.018,-0.025,-1.013,
374931879,0.018,-0.025,-1.014,
374970402,0.018,-0.025,-1.014,
375008926,0.018,-0.025,-1.014,
375047449,0.019,-0.025,-1.013,
375085973,0.018,-0.025,-1.013,
375124496,0.018,-0.026,-1.013,
375163019,0.018,-0.026,-1.014,
375201543,0.018,-0.025,-1.013,
375240066,0.018,-0.025,-1.014,
375278589,0.019,-0.025,-1.014,
375317112,0.018,-0.025,-1.014,
375355636,0.018,-0.026,-1.013,
375394159,0.018,-0.025,-1.013,
375432683,0.018,-0.025,-1.014,
375471206,0.018,-0.025,-1.014,
375509730,0.018,-0.025,-1.014,
375548253,0.018,-0.025,-1.014,
375586776,0.018,-0.025,-1.013,
375625300,0.019,-0.025,-1.013,
375663823,0.018,-0.025,-1.013,
375702346,0.018,-0.026,-1.014,
375740869,0.019,-0.025,-1.014,
375779393,0.018,-0.025,-1.013,
375817916,0.018,-0.025,-1.013,
375856439,0.018,-0.025,-1.013,
375894963,0.019,-0.025,-1.013,
375933486,0.018,-0.025,-1.013,
375972009,0.019,-0.025,-1.014,
376010533,0.018,-0.025,-1.014,
376049056,0.018,-0.025,-1.013,
376087579,0.018,-0.025,-1.013,
376126103,0.019,-0.025,-1.013,
376164626,0.018,-0.025,-1.013,
376203149,0.019,-0.025,-1.014,
376241673,0.018,-0.025,-1.013,
376280196,0.018,-0.025,-1.014,
376318719,0.018,-0.026,-1.014,
376357242,0.018,-0.025,-1.013,
376395766,0.018,-0.025,-1.013,
376434290,0.018,-0.025,-1.013,
376472812,0.019,-0.025,-1.014,
376511336,0.018,-0.025,-1.013,
376549859,0.018,-0.026,-1.013,
376588383,0.018,-0.026,-1.013,
376626906,0.019,-0.025,-1.014,
376665429,0.018,-0.025,-1.014,
376703953,0.018,-0.025,-1.014,
376742476,0.019,-0.025,-1.013,
376780999,0.018,-0.025,-1.013,
376819523,0.018,-0.025,-1.014,
376858046,0.018,-0.025,-1.014,
376896569,0.019,-0.025,-1.014,
376935093,0.018,-0.025,-1.014,
376973616,0.018,-0.025,-1.013,
377012140,0.018,-0.025,-1.013,
377050663,0.018,-0.025,-1.014,
377089186,0.018,-0.026,-1.013,
377127710,0.019,-0.025,-1.013,
377166233,0.018,-0.025,-1.014,
377204757,0.018,-0.025,-1.013,
377243280,0.018,-0.025,-1.013,
377281803,0.018,-0.025,-1.014,
377320326,0.018,-0.025,-1.013,
377358849,0.018,-0.025,-1.014,
377397373,0.019,-0.025,-1.013,
377435896,0.019,-0.025,-1.014,
377474420,0.018,-0.025,-1.014,
377512943,0.018,-0.025,-1.013,
377551466,0.018,-0.025,-1.014,
377589990,0.019,-0.025,-1.013,
377628513,0.019,-0.025,-1.014,
377667037,0.018,-0.025,-1.014,
377705560,0.018,-0.025,-1.013,
377744083,0.019,-0.026,-1.013,
377782606,0.018,-0.025,-1.014,
377821130,0.018,-0.025,-1.014,
377859653,0.019,-0.025,-1.013,
377898176,0.019,-0.026,-1.014,
377936700,0.018,-0.026,-1.013,
377975224,0.019,-0.025,-1.013,
378013747,0.018,-0.025,-1.014,
378052270,0.018,-0.025,-1.013,
378090794,0.018,-0.025,-1.013,
378129317,0.018,-0.025,-1.013,
378167840,0.018,-0.025,-1.013,
378206363,0.018,-0.025,-1.014,
378244887,0.018,-0.025,-1.014,
378283410,0.018,-0.025,-1.014,
378321933,0.018,-0.025,-1.014,
378360457,0.018,-0.025,-1.014,
378398980,0.018,-0.025,-1.013,
378437504,0.018,-0.025,-1.013,
378476027,0.018,-0.025,-1.014,
378514551,0.019,-0.025,-1.013,
378553073,0.019,-0.025,-1.014,
378591597,0.018,-0.025,-1.014,
378630121,0.018,-0.025,-1.014,
378668643,0.018,-0.025,-1.013,
378707167,0.019,-0.025,-1.014,
378745690,0.018,-0.025,-1.014,
378784214,0.018,-0.025,-1.013,
378822737,0.018,-0.025,-1.013,
378861260,0.018,-0.025,-1.013,
378899784,0.018,-0.025,-1.013,
378938307,0.018,-0.025,-1.014,
378976830,0.018,-0.025,-1.013,
379015353,0.018,-0.025,-1.013,
379053877,0.018,-0.025,-1.014,
379092401,0.018,-0.025,-1.013,
379130924,0.018,-0.025,-1.014,
379169447,0.019,-0.025,-1.014,
379207971,0.018,-0.025,-1.014,
379246494,0.018,-0.025,-1.014,
379285018,0.019,-0.025,-1.014,
379323541,0.018,-0.026,-1.014,
379362064,0.018,-0.025,-1.013,
379400587,0.019,-0.025,-1.013,
379439110,0.018,-0.025,-1.013,
379477634,0.018,-0.025,-1.013,
379516157,0.018,-0.025,-1.013,
379554681,0.018,-0.025,-1.014,
379593204,0.018,-0.025,-1.013,
379631728,0.018,-0.025,-1.014,
379670251,0.018,-0.025,-1.014,
379708774,0.018,-0.025,-1.013,
379747297,0.018,-0.025,-1.013,
379785821,0.018,-0.025,-1.013,
379824344,0.018,-0.025,-1.014,
379862868,0.018,-0.025,-1.013,
379901391,0.018,-0.026,-1.013,
379939914,0.018,-0.025,-1.014,
379978438,0.019,-0.026,-1.014,
380016961,0.019,-0.025,-1.014,
380055484,0.018,-0.025,-1.014,
380094008,0.019,-0.025,-1.013,
380132531,0.019,-0.025,-1.014,
380171054,0.019,-0.025,-1.013,
380209578,0.018,-0.025,-1.013,
380248101,0.019,-0.025,-1.013,
380286624,0.018,-0.025,-1.014,
380325147,0.018,-0.025,-1.013,
380363671,0.018,-0.025,-1.013,
380402194,0.018,-0.025,-1.014,
380440717,0.018,-0.025,-1.014,
380479241,0.018,-0.026,-1.014,
380517764,0.018,-0.025,-1.013,
380556287,0.019,-0.025,-1.013,
380594811,0.018,-0.025,-1.013,
380633334,0.018,-0.025,-1.013,
380671858,0.018,-0.025,-1.014,
380710381,0.018,-0.025,-1.013,
380748904,0.018,-0.025,-1.013,
380787428,0.018,-0.025,-1.013,
380825951,0.019,-0.025,-1.013,
380864475,0.018,-0.025,-1.013,
380902998,0.018,-0.025,-1.014,
380941521,0.018,-0.025,-1.014,
380980045,0.019,-0.025,-1.014,
381018567,0.018,-0.025,-1.014,
381057091,0.019,-0.025,-1.013,
381095615,0.019,-0.026,-1.014,
381134138,0.018,-0.026,-1.014,
381172662,0.018,-0.025,-1.013,
381211184,0.018,-0.026,-1.014,
381249708,0.018,-0.025,-1.014,
381288232,0.018,-0.025,-1.014,
381326755,0.018,-0.025,-1.014,
381365278,0.018,-0.025,-1.014,
381403801,0.018,-0.025,-1.013,
381442325,0.018,-0.025,-1.013,
381480848,0.019,-0.026,-1.013,
381519371,0.018,-0.025,-1.013,
381557895,0.018,-0.025,-1.014,
381596418,0.018,-0.025,-1.013,
381634941,0.018,-0.026,-1.013,
381673465,0.018,-0.025,-1.013,
381711988,0.018,-0.026,-1.014,
381750512,0.018,-0.025,-1.013,
381789035,0.019,-0.025,-1.013,
381827558,0.018,-0.025,-1.013,
381866082,0.018,-0.025,-1.013,
381904605,0.018,-0.025,-1.014,
381943129,0.018,-0.025,-1.014,
381981651,0.018,-0.025,-1.013,
382020175,0.018,-0.025,-1.013,
382058698,0.019,-0.025,-1.014,
382097222,0.018,-0.026,-1.013,
382135745,0.019,-0.025,-1.013,
382174268,0.018,-0.025,-1.014,
382212792,0.018,-0.025,-1.014,
382251315,0.018,-0.025,-1.014,
382289839,0.018,-0.025,-1.014,
382328361,0.018,-0.026,-1.013,
382366885,0.019,-0.025,-1.014,
382405409,0.018,-0.025,-1.014,
382443932,0.018,-0.025,-1.014,
382482455,0.018,-0.025,-1.013,
382520978,0.019,-0.025,-1.014,
382559502,0.018,-0.025,-1.014,
382598025,0.019,-0.025,-1.013,
382636549,0.018,-0.025,-1.014,
382675071,0.019,-0.025,-1.014,
382713595,0.018,-0.025,-1.014,
382752118,0.018,-0.026,-1.014,
382790642,0.018,-0.025,-1.014,
382829165,0.018,-0.025,-1.013,
382867689,0.019,-0.025,-1.014,
382906212,0.018,-0.025,-1.014,
382944735,0.019,-0.025,-1.014,
382983259,0.018,-0.026,-1.013,
383021782,0.018,-0.025,-1.013,
383060305,0.018,-0.025,-1.014,
383098829,0.018,-0.025,-1.014,
383137352,0.018,-0.025,-1.013,
383175875,0.018,-0.025,-1.013,
383214399,0.018,-0.025,-1.013,
383252922,0.018,-0.025,-1.014,
383291446,0.018,-0.025,-1.013,
383329969,0.018,-0.025,-1.014,
383368492,0.018,-0.025,-1.014,
383407016,0.018,-0.025,-1.013,
383445539,0.018,-0.025,-1.014,
383484062,0.018,-0.025,-1.014,
383522586,0.018,-0.025,-1.013,
383561109,0.018,-0.025,-1.014,
383599632,0.019,-0.025,-1.013,
383638155,0.018,-0.025,-1.014,
383676679,0.018,-0.025,-1.014,
383715203,0.018,-0.025,-1.014,
383753726,0.018,-0.026,-1.013,
383792249,0.018,-0.025,-1.013,
383830773,0.018,-0.025,-1.014,
383869295,0.019,-0.026,-1.013,
383907819,0.019,-0.025,-1.014,
383946342,0.019,-0.025,-1.014,
383984866,0.018,-0.025,-1.014,
384023389,0.019,-0.025,-1.013,
384061913,0.018,-0.025,-1.014,
384100436,0.018,-0.025,-1.013,
384138959,0.018,-0.025,-1.013,
384177482,0.018,-0.025,-1.013,
384216006,0.019,-0.025,-1.014,
384254530,0.018,-0.025,-1.014,
384293052,0.018,-0.025,-1.014,
384331576,0.018,-0.025,-1.013,
384370100,0.018,-0.025,-1.014,
384408622,0.018,-0.025,-1.014,
384447146,0.018,-0.025,-1.013,
384485669,0.018,-0.025,-1.013,
384524193,0.018,-0.026,-1.014,
384562716,0.018,-0.025,-1.014,
384601240,0.018,-0.025,-1.014,
384639762,0.018,-0.025,-1.014,
384678286,0.018,-0.025,-1.014,
384716809,0.018,-0.025,-1.014,
384755332,0.019,-0.025,-1.013,
384793856,0.019,-0.025,-1.013,
384832379,0.018,-0.025,-1.014,
384870903,0.019,-0.025,-1.014,
384909426,0.018,-0.025,-1.013,
384947949,0.019,-0.025,-1.014,
384986473,0.018,-0.026,-1.013,
385024996,0.018,-0.025,-1.013,
385063520,0.018,-0.025,-1.014,
385102043,0.019,-0.025,-1.013,
385140566,0.018,-0.025,-1.014,
385179090,0.018,-0.025,-1.013,
385217613,0.018,-0.025,-1.013,
385256136,0.018,-0.025,-1.013,
385294660,0.018,-0.025,-1.014,
385333183,0.018,-0.025,-1.013,
385371706,0.018,-0.025,-1.014,
385410230,0.018,-0.026,-1.014,
385448753,0.018,-0.025,-1.014,
385487276,0.018,-0.025,-1.014,
385525799,0.018,-0.025,-1.013,
385564323,0.018,-0.025,-1.014,
385602847,0.018,-0.025,-1.014,
385641370,0.018,-0.025,-1.014,
385679893,0.018,-0.025,-1.014,
385718417,0.018,-0.025,-1.013,
385756940,0.018,-0.025,-1.014,
385795463,0.019,-0.025,-1.014,
385833987,0.019,-0.025,-1.013,
385872510,0.018,-0.025,-1.013,
385911034,0.019,-0.025,-1.013,
385949557,0.018,-0.025,-1.014,
385988079,0.018,-0.025,-1.014,
386026603,0.018,-0.025,-1.014,
386065127,0.018,-0.026,-1.013,
386103650,0.018,-0.025,-1.014,
386142174,0.018,-0.025,-1.013,
386180696,0.018,-0.025,-1.013,
386219220,0.018,-0.025,-1.013,
386257743,0.018,-0.025,-1.014,
386296266,0.018,-0.026,-1.014,
386334790,0.018,-0.025,-1.013,
386373314,0.019,-0.025,-1.013,
386411837,0.018,-0.025,-1.014,
386450360,0.018,-0.025,-1.014,
386488883,0.018,-0.025,-1.014,
386527407,0.018,-0.025,-1.014,
386565930,0.018,-0.025,-1.013,
386604454,0.018,-0.026,-1.013,
386642977,0.018,-0.025,-1.014,
386681501,0.018,-0.025,-1.014,
386720024,0.018,-0.025,-1.014,
386758547,0.019,-0.025,-1.013,
386797070,0.018,-0.025,-1.013,
386835594,0.018,-0.024,-1.014,
386874117,0.018,-0.025,-1.013,
386912640,0.018,-0.025,-1.013,
386951164,0.018,-0.025,-1.014,
386989687,0.018,-0.026,-1.013,
387028211,0.018,-0.025,-1.013,
387066734,0.018,-0.025,-1.013,
387105257,0.018,-0.025,-1.013,
387143781,0.018,-0.025,-1.014,
387182304,0.018,-0.025,-1.014,
387220827,0.019,-0.025,-1.014,
387259351,0.019,-0.026,-1.013,
387297874,0.018,-0.025,-1.013,
387336397,0.018,-0.025,-1.013,
387374921,0.019,-0.025,-1.013,
387413444,0.018,-0.025,-1.013,
387451967,0.018,-0.025,-1.014,
387490491,0.019,-0.025,-1.013,
387529014,0.018,-0.025,-1.014,
387567538,0.019,-0.025,-1.014,
387606061,0.018,-0.025,-1.014,
387644584,0.018,-0.025,-1.014,
387683108,0.018,-0.025,-1.014,
387721631,0.018,-0.025,-1.014,
387760154,0.019,-0.025,-1.013,
387798678,0.018,-0.025,-1.014,
387837201,0.018,-0.025,-1.013,
387875724,0.018,-0.025,-1.013,
387914248,0.018,-0.025,-1.013,
387952771,0.018,-0.025,-1.014,
387991294,0.018,-0.025,-1.013,
388029818,0.018,-0.025,-1.014,
388068341,0.019,-0.025,-1.013,
388106864,0.018,-0.025,-1.013,
388145388,0.019,-0.025,-1.014,
388183911,0.018,-0.025,-1.013,
388222435,0.018,-0.025,-1.014,
388260958,0.018,-0.025,-1.014,
388299481,0.018,-0.025,-1.013,
388338004,0.018,-0.025,-1.014,
388376528,0.018,-0.025,-1.014,
388415051,0.018,-0.025,-1.013,
388453575,0.018,-0.025,-1.014,
388492098,0.019,-0.025,-1.013,
388530621,0.018,-0.024,-1.014,
388569145,0.018,-0.025,-1.013,
388607668,0.018,-0.025,-1.014,
388646191,0.018,-0.025,-1.014,
388684715,0.018,-0.025,-1.013,
388723238,0.018,-0.026,-1.014,
388761761,0.018,-0.025,-1.013,
388800284,0.018,-0.025,-1.014,
388838808,0.018,-0.025,-1.014,
388877332,0.019,-0.026,-1.014,
388915854,0.018,-0.025,-1.013,
388954378,0.018,-0.025,-1.013,
388992901,0.018,-0.025,-1.014,
389031425,0.018,-0.025,-1.014,
389069948,0.018,-0.025,-1.014,
389108471,0.018,-0.025,-1.014,
389146995,0.019,-0.025,-1.014,
389185518,0.018,-0.025,-1.014,
389224042,0.018,-0.025,-1.013,
389262565,0.018,-0.025,-1.014,
389301088,0.018,-0.025,-1.014,
389339611,0.018,-0.025,-1.014,
389378135,0.018,-0.025,-1.014,
389416658,0.018,-0.025,-1.013,
389455181,0.019,-0.025,-1.013,
389493705,0.019,-0.025,-1.013,
389532229,0.018,-0.025,-1.013,
389570751,0.018,-0.025,-1.013,
389609275,0.018,-0.025,-1.013,
389647798,0.018,-0.025,-1.014,
389686321,0.018,-0.026,-1.014,
389724845,0.018,-0.025,-1.013,
389763368,0.018,-0.026,-1.014,
389801892,0.018,-0.025,-1.013,
389840415,0.018,-0.025,-1.014,
389878938,0.018,-0.025,-1.013,
389917462,0.018,-0.025,-1.013,
389955985,0.018,-0.025,-1.014,
389994508,0.018,-0.025,-1.013,
390033032,0.018,-0.025,-1.014,
390071555,0.018,-0.025,-1.013,
390110079,0.018,-0.025,-1.013,
390148602,0.018,-0.025,-1.014,
390187125,0.018,-0.025,-1.013,
390225648,0.018,-0.025,-1.014,
390264172,0.018,-0.025,-1.013,
390302696,0.018,-0.025,-1.013,
390341219,0.018,-0.025,-1.014,
390379742,0.018,-0.025,-1.014,
390418265,0.019,-0.025,-1.014,
390456789,0.018,-0.025,-1.014,
390495312,0.018,-0.025,-1.013,
390533835,0.018,-0.025,-1.014,
390572359,0.018,-0.025,-1.013,
390610882,0.018,-0.025,-1.013,
390649405,0.018,-0.025,-1.014,
390687928,0.018,-0.025,-1.014,
390726452,0.018,-0.025,-1.014,
390764975,0.018,-0.025,-1.013,
390803499,0.019,-0.025,-1.014,
390842022,0.018,-0.025,-1.014,
390880546,0.018,-0.025,-1.014,
390919069,0.018,-0.025,-1.014,
390957592,0.019,-0.025,-1.013,
390996116,0.019,-0.025,-1.014,
391034638,0.018,-0.025,-1.014,
391073162,0.019,-0.025,-1.013,
391111686,0.018,-0.025,-1.014,
391150209,0.018,-0.025,-1.013,
391188732,0.018,-0.025,-1.014,
391227256,0.018,-0.026,-1.014,
391265779,0.018,-0.025,-1.013,
391304302,0.018,-0.025,-1.013,
391342825,0.018,-0.025,-1.013,
391381349,0.019,-0.025,-1.014,
391419872,0.018,-0.026,-1.014,
391458396,0.018,-0.025,-1.013,
391496919,0.018,-0.025,-1.013,
391535442,0.018,-0.025,-1.014,
391573966,0.018,-0.025,-1.013,
391612489,0.018,-0.025,-1.013,
391651013,0.018,-0.025,-1.014,
391689536,0.018,-0.025,-1.014,
391728059,0.018,-0.025,-1.014,
391766582,0.018,-0.025,-1.014,
391805106,0.018,-0.025,-1.014,
391843629,0.018,-0.025,-1.013,
391882152,0.018,-0.025,-1.013,
391920676,0.018,-0.025,-1.013,
391959199,0.018,-0.026,-1.013,
391997723,0.018,-0.025,-1.014,
392036246,0.019,-0.025,-1.014,
392074769,0.018,-0.025,-1.013,
392113292,0.018,-0.025,-1.014,
392151816,0.019,-0.025,-1.014,
392190339,0.018,-0.025,-1.014,
392228863,0.019,-0.025,-1.014,
392267386,0.018,-0.026,-1.013,
392305909,0.018,-0.025,-1.014,
392344432,0.018,-0.025,-1.014,
392382956,0.018,-0.025,-1.013,
392421479,0.018,-0.025,-1.013,
392460004,0.019,-0.025,-1.014,
392498526,0.018,-0.025,-1.014,
392537049,0.018,-0.025,-1.013,
392575573,0.019,-0.025,-1.014,
392614096,0.018,-0.025,-1.013,
392652620,0.018,-0.025,-1.013,
392691143,0.018,-0.025,-1.013,
392729666,0.018,-0.025,-1.013,
392768190,0.018,-0.025,-1.013,
392806713,0.018,-0.025,-1.014,
392845236,0.018,-0.025,-1.014,
392883760,0.018,-0.025,-1.014,
392922283,0.018,-0.025,-1.014,
392960806,0.018,-0.025,-1.014,
392999329,0.018,-0.025,-1.013,
393037853,0.018,-0.026,-1.014,
393076377,0.019,-0.025,-1.014,
393114900,0.018,-0.025,-1.014,
393153423,0.018,-0.025,-1.014,
393191947,0.018,-0.025,-1.014,
393230470,0.018,-0.025,-1.014,
393268993,0.018,-0.025,-1.014,
393307516,0.018,-0.025,-1.014,
393346040,0.018,-0.025,-1.014,
393384563,0.019,-0.025,-1.014,
393423087,0.018,-0.025,-1.013,
393461610,0.019,-0.025,-1.014,
393500133,0.019,-0.025,-1.013,
393538656,0.018,-0.025,-1.014,
393577180,0.018,-0.025,-1.013,
393615703,0.018,-0.025,-1.014,
393654226,0.018,-0.025,-1.014,
393692750,0.018,-0.025,-1.013,
393731273,0.018,-0.025,-1.014,
393769797,0.018,-0.025,-1.013,
393808320,0.018,-0.025,-1.014,
393846843,0.019,-0.025,-1.013,
393885367,0.018,-0.025,-1.013,
393923890,0.018,-0.025,-1.013,
393962413,0.018,-0.025,-1.014,
394000937,0.018,-0.025,-1.014,
394039460,0.018,-0.025,-1.013,
394077983,0.019,-0.025,-1.013,
394116507,0.018,-0.025,-1.013,
394155030,0.018,-0.025,-1.014,
394193554,0.019,-0.025,-1.013,
394232077,0.018,-0.025,-1.014,
394270600,0.018,-0.025,-1.013,
394309123,0.018,-0.025,-1.013,
394347647,0.019,-0.025,-1.013,
394386170,0.018,-0.025,-1.013,
394424694,0.018,-0.025,-1.014,
394463217,0.018,-0.025,-1.014,
394501740,0.018,-0.025,-1.013,
394540263,0.018,-0.025,-1.013,
394578787,0.018,-0.025,-1.014,
394617310,0.018,-0.025,-1.014,
394655833,0.018,-0.025,-1.014,
394694357,0.018,-0.025,-1.013,
394732880,0.018,-0.025,-1.013,
394771403,0.019,-0.025,-1.013,
394809927,0.018,-0.025,-1.013,
394848451,0.018,-0.025,-1.014,
394886974,0.018,-0.025,-1.014,
394925497,0.018,-0.025,-1.014,
394964021,0.018,-0.025,-1.014,
395002544,0.018,-0.025,-1.014,
395041067,0.018,-0.025,-1.013,
395079590,0.019,-0.025,-1.013,
395118114,0.018,-0.025,-1.013,
395156637,0.019,-0.025,-1.013,
395195161,0.018,-0.025,-1.014,
395233684,0.018,-0.025,-1.014,
395272207,0.018,-0.025,-1.013,
395310731,0.018,-0.025,-1.013,
395349254,0.018,-0.025,-1.013,
395387777,0.019,-0.025,-1.014,
395426301,0.019,-0.025,-1.014,
395464824,0.019,-0.025,-1.014,
395503348,0.018,-0.025,-1.014,
395541870,0.019,-0.025,-1.014,
395580394,0.018,-0.025,-1.013,
395618917,0.018,-0.025,-1.014,
395657441,0.018,-0.025,-1.013,
395695964,0.018,-0.025,-1.013,
395734487,0.018,-0.025,-1.014,
395773011,0.018,-0.025,-1.014,
395811534,0.019,-0.025,-1.013,
395850058,0.019,-0.025,-1.014,
395888580,0.019,-0.026,-1.013,
395927104,0.018,-0.025,-1.013,
395965627,0.018,-0.025,-1.014,
396004151,0.019,-0.025,-1.013,
396042674,0.018,-0.025,-1.013,
396081197,0.018,-0.025,-1.013,
396119721,0.019,-0.025,-1.014,
396158244,0.018,-0.025,-1.014,
396196767,0.018,-0.025,-1.013,
396235291,0.018,-0.026,-1.013,
396273814,0.019,-0.025,-1.014,
396312337,0.018,-0.026,-1.014,
396350861,0.018,-0.025,-1.013,
396389384,0.019,-0.025,-1.013,
396427908,0.018,-0.025,-1.014,
396466431,0.019,-0.025,-1.014,
396504954,0.018,-0.025,-1.013,
396543477,0.018,-0.025,-1.014,
396582001,0.019,-0.025,-1.014,
396620524,0.018,-0.025,-1.013,
396659047,0.019,-0.025,-1.014,
396697571,0.019,-0.025,-1.014,
396736094,0.018,-0.025,-1.014,
396774618,0.018,-0.025,-1.013,
396813141,0.019,-0.025,-1.014,
396851664,0.018,-0.025,-1.014,
396890188,0.018,-0.025,-1.014,
396928711,0.018,-0.025,-1.014,
396967234,0.018,-0.025,-1.014,
397005758,0.018,-0.025,-1.013,
397044281,0.018,-0.025,-1.013,
397082805,0.019,-0.025,-1.014,
397121328,0.018,-0.025,-1.014,
397159851,0.018,-0.025,-1.014,
397198375,0.018,-0.025,-1.013,
397236897,0.018,-0.025,-1.014,
397275421,0.019,-0.025,-1.014,
397313944,0.018,-0.025,-1.013,
397352468,0.018,-0.025,-1.013,
397390991,0.018,-0.025,-1.013,
397429515,0.018,-0.025,-1.014,
397468037,0.018,-0.025,-1.014,
397506561,0.018,-0.025,-1.013,
397545084,0.018,-0.025,-1.014,
397583608,0.019,-0.025,-1.013,
397622131,0.018,-0.025,-1.014,
397660655,0.019,-0.025,-1.014,
397699178,0.018,-0.025,-1.014,
397737701,0.018,-0.025,-1.014,
397776224,0.018,-0.025,-1.014,
397814748,0.018,-0.025,-1.014,
397853272,0.018,-0.025,-1.014,
397891795,0.019,-0.025,-1.014,
397930318,0.018,-0.025,-1.013,
397968841,0.019,-0.025,-1.014,
398007365,0.019,-0.025,-1.013,
398045888,0.018,-0.025,-1.013,
398084411,0.018,-0.025,-1.013,
398122935,0.018,-0.025,-1.013,
398161458,0.018,-0.025,-1.014,
398199981,0.018,-0.025,-1.014,
398238504,0.018,-0.025,-1.014,
398277028,0.018,-0.025,-1.014,
398315551,0.018,-0.025,-1.014,
398354075,0.018,-0.025,-1.014,
398392598,0.018,-0.024,-1.014,
398431121,0.019,-0.025,-1.013,
398469645,0.018,-0.024,-1.014,
398508168,0.018,-0.025,-1.013,
398546692,0.019,-0.025,-1.014,
398585215,0.019,-0.024,-1.014,
398623738,0.018,-0.025,-1.013,
398662261,0.018,-0.025,-1.014,
398700785,0.018,-0.025,-1.014,
398739308,0.019,-0.025,-1.013,
398777832,0.019,-0.025,-1.014,
398816355,0.019,-0.025,-1.013,
398854878,0.018,-0.025,-1.013,
398893401,0.018,-0.025,-1.014,
398931924,0.018,-0.026,-1.014,
398970448,0.018,-0.025,-1.014,
399008971,0.018,-0.025,-1.013,
399047495,0.018,-0.025,-1.013,
399086018,0.018,-0.025,-1.014,
399124541,0.018,-0.025,-1.014,
399163065,0.019,-0.025,-1.014,
399201588,0.018,-0.025,-1.014,
399240111,0.019,-0.025,-1.013,
399278635,0.018,-0.025,-1.013,
399317158,0.019,-0.025,-1.013,
399355682,0.018,-0.025,-1.013,
399394205,0.019,-0.025,-1.013,
399432728,0.018,-0.025,-1.014,
399471252,0.018,-0.025,-1.013,
399509775,0.018,-0.025,-1.014,
399548298,0.018,-0.025,-1.014,
399586822,0.018,-0.025,-1.013,
399625345,0.018,-0.025,-1.013,
399663868,0.018,-0.025,-1.013,
399702392,0.019,-0.025,-1.014,
399740915,0.019,-0.025,-1.014,
399779438,0.018,-0.025,-1.013,
399817961,0.018,-0.025,-1.014,
399856485,0.019,-0.025,-1.014,
399895009,0.018,-0.025,-1.014,
399933531,0.018,-0.025,-1.014,
399972055,0.019,-0.025,-1.014,
400010579,0.018,-0.025,-1.014,
400049102,0.019,-0.025,-1.014,
400087625,0.018,-0.025,-1.014,
400126149,0.018,-0.025,-1.014,
400164672,0.018,-0.025,-1.014,
400203195,0.018,-0.025,-1.014,
400241718,0.018,-0.025,-1.013,
400280242,0.018,-0.025,-1.013,
400318765,0.018,-0.025,-1.014,
400357288,0.018,-0.025,-1.014,
400395811,0.018,-0.025,-1.014,
400434335,0.018,-0.025,-1.013,
400472858,0.019,-0.025,-1.013,
400511381,0.018,-0.025,-1.014,
400549905,0.018,-0.025,-1.014,
400588428,0.019,-0.025,-1.014,
400626952,0.018,-0.025,-1.014,
400665475,0.018,-0.025,-1.014,
400703998,0.018,-0.025,-1.014,
400742522,0.018,-0.025,-1.014,
400781045,0.019,-0.025,-1.013,
400819568,0.019,-0.025,-1.014,
400858091,0.018,-0.026,-1.014,
400896615,0.018,-0.025,-1.013,
400935138,0.018,-0.025,-1.014,
400973662,0.018,-0.025,-1.014,
401012185,0.018,-0.025,-1.014,
401050708,0.018,-0.025,-1.014,
401089232,0.018,-0.025,-1.014,
401127755,0.018,-0.025,-1.013,
401166279,0.018,-0.025,-1.014,
401204802,0.019,-0.025,-1.014,
401243325,0.018,-0.025,-1.014,
401281849,0.018,-0.025,-1.014,
401320372,0.018,-0.025,-1.014,
401358895,0.018,-0.025,-1.013,
401397418,0.019,-0.025,-1.014,
401435942,0.018,-0.025,-1.014,
401474465,0.018,-0.025,-1.013,
401512989,0.018,-0.025,-1.014,
401551512,0.018,-0.025,-1.013,
401590035,0.018,-0.025,-1.013,
401628558,0.018,-0.025,-1.013,
401667082,0.018,-0.026,-1.013,
401705605,0.018,-0.025,-1.013,
401744129,0.018,-0.025,-1.014,
401782652,0.019,-0.026,-1.014,
401821175,0.018,-0.025,-1.014,
401859699,0.018,-0.025,-1.013,
401898222,0.018,-0.025,-1.013,
401936745,0.018,-0.025,-1.014,
401975269,0.018,-0.025,-1.014,
402013792,0.018,-0.025,-1.014,
402052316,0.018,-0.025,-1.013,
402090839,0.018,-0.025,-1.013,
402129362,0.018,-0.025,-1.014,
402167885,0.018,-0.025,-1.014,
402206409,0.018,-0.025,-1.014,
402244932,0.018,-0.025,-1.014,
402283455,0.018,-0.025,-1.013,
402321978,0.018,-0.025,-1.013,
402360502,0.018,-0.025,-1.013,
402399025,0.018,-0.025,-1.014,
402437548,0.018,-0.025,-1.013,
402476072,0.018,-0.025,-1.013,
402514596,0.019,-0.026,-1.013,
402553119,0.018,-0.025,-1.013,
402591642,0.019,-0.025,-1.013,
402630165,0.018,-0.025,-1.013,
402668688,0.018,-0.025,-1.013,
402707213,0.018,-0.025,-1.014,
402745735,0.018,-0.025,-1.013,
402784258,0.018,-0.025,-1.013,
402822782,0.018,-0.025,-1.014,
402861306,0.018,-0.025,-1.014,
402899829,0.019,-0.025,-1.014,
402938352,0.018,-0.026,-1.013,
402976876,0.018,-0.026,-1.013,
403015399,0.018,-0.025,-1.013,
403053922,0.019,-0.025,-1.014,
403092445,0.019,-0.025,-1.014,
403130969,0.018,-0.025,-1.013,
403169492,0.019,-0.025,-1.013,
403208015,0.019,-0.025,-1.014,
403246539,0.018,-0.025,-1.014,
403285062,0.018,-0.025,-1.014,
403323586,0.018,-0.025,-1.014,
403362109,0.019,-0.025,-1.014,
403400632,0.018,-0.025,-1.014,
403439156,0.018,-0.025,-1.014,
403477679,0.018,-0.025,-1.013,
403516202,0.018,-0.025,-1.014,
403554726,0.018,-0.025,-1.013,
403593249,0.018,-0.025,-1.013,
403631773,0.019,-0.025,-1.013,
403670296,0.018,-0.025,-1.013,
403708819,0.018,-0.025,-1.013,
403747342,0.018,-0.025,-1.013,
403785865,0.019,-0.025,-1.014,
403824389,0.018,-0.025,-1.013,
403862912,0.019,-0.025,-1.014,
403901435,0.018,-0.025,-1.014,
403939959,0.018,-0.025,-1.013,
403978482,0.018,-0.025,-1.014,
404017006,0.018,-0.025,-1.014,
404055529,0.018,-0.025,-1.014,
404094053,0.018,-0.025,-1.013,
404132575,0.018,-0.025,-1.013,
404171099,0.018,-0.025,-1.013,
404209623,0.018,-0.025,-1.013,
404248146,0.018,-0.025,-1.013,
404286669,0.018,-0.025,-1.014,
404325192,0.018,-0.025,-1.013,
404363716,0.018,-0.025,-1.014,
404402239,0.018,-0.025,-1.014,
404440762,0.018,-0.025,-1.014,
404479286,0.018,-0.025,-1.013,
404517809,0.018,-0.025,-1.014,
404556332,0.019,-0.025,-1.014,
404594855,0.019,-0.025,-1.013,
404633379,0.018,-0.025,-1.013,
404671902,0.018,-0.025,-1.013,
404710426,0.018,-0.025,-1.014,
404748949,0.019,-0.025,-1.014,
404787472,0.018,-0.025,-1.014,
404825996,0.018,-0.026,-1.013,
404864519,0.019,-0.025,-1.013,
404903043,0.018,-0.025,-1.013,
404941566,0.018,-0.025,-1.013,
404980089,0.019,-0.025,-1.014,
405018613,0.018,-0.025,-1.014,
405057136,0.018,-0.026,-1.014,
405095659,0.018,-0.025,-1.013,
405134182,0.018,-0.025,-1.013,
405172706,0.018,-0.025,-1.013,
405211229,0.018,-0.025,-1.013,
405249752,0.018,-0.025,-1.013,
405288276,0.018,-0.026,-1.014,
405326799,0.018,-0.025,-1.014,
405365323,0.018,-0.025,-1.013,
405403846,0.018,-0.025,-1.014,
405442369,0.018,-0.026,-1.014,
405480893,0.018,-0.025,-1.013,
405519416,0.018,-0.025,-1.013,
405557939,0.019,-0.025,-1.014,
405596462,0.019,-0.025,-1.013,
405634986,0.018,-0.026,-1.014,
405673509,0.018,-0.026,-1.014,
405712033,0.018,-0.025,-1.014,
405750556,0.018,-0.025,-1.013,
405789079,0.018,-0.025,-1.013,
405827603,0.019,-0.025,-1.013,
405866126,0.018,-0.025,-1.013,
405904649,0.018,-0.025,-1.014,
405943172,0.018,-0.025,-1.014,
405981696,0.018,-0.025,-1.013,
406020219,0.018,-0.025,-1.014,
406058742,0.019,-0.025,-1.013,
406097266,0.019,-0.025,-1.014,
406135789,0.018,-0.025,-1.013,
406174312,0.018,-0.025,-1.014,
406212836,0.018,-0.026,-1.014,
406251359,0.018,-0.025,-1.014,
406289883,0.018,-0.025,-1.013,
406328406,0.018,-0.025,-1.014,
406366929,0.018,-0.025,-1.013,
406405452,0.018,-0.025,-1.013,
406443976,0.018,-0.025,-1.013,
406482499,0.019,-0.025,-1.014,
406521023,0.018,-0.025,-1.013,
406559546,0.018,-0.025,-1.014,
406598069,0.018,-0.025,-1.013,
406636593,0.019,-0.025,-1.014,
406675116,0.019,-0.026,-1.014,
406713640,0.019,-0.025,-1.014,
406752163,0.018,-0.025,-1.014,
406790686,0.018,-0.025,-1.013,
406829210,0.018,-0.025,-1.014,
406867732,0.018,-0.025,-1.013,
406906256,0.019,-0.026,-1.013,
406944779,0.018,-0.026,-1.013,
406983302,0.018,-0.025,-1.014,
407021826,0.018,-0.025,-1.014,
407060350,0.019,-0.025,-1.014,
407098872,0.019,-0.025,-1.013,
407137396,0.018,-0.026,-1.014,
407175920,0.018,-0.025,-1.014,
407214443,0.019,-0.025,-1.013,
407252966,0.018,-0.025,-1.013,
407291489,0.018,-0.025,-1.014,
407330013,0.019,-0.026,-1.014,
407368536,0.019,-0.025,-1.014,
407407059,0.018,-0.025,-1.014,
407445583,0.018,-0.025,-1.013,
407484106,0.018,-0.025,-1.014,
407522630,0.018,-0.025,-1.013,
407561153,0.018,-0.025,-1.014,
407599676,0.019,-0.026,-1.014,
407638199,0.019,-0.025,-1.013,
407676722,0.018,-0.025,-1.014,
407715246,0.019,-0.025,-1.014,
407753769,0.018,-0.025,-1.014,
407792293,0.019,-0.025,-1.014,
407830816,0.018,-0.025,-1.014,
407869340,0.019,-0.025,-1.014,
407907863,0.019,-0.025,-1.013,
407946386,0.018,-0.025,-1.013,
407984910,0.018,-0.025,-1.014,
408023432,0.018,-0.025,-1.014,
408061956,0.018,-0.025,-1.014,
408100479,0.018,-0.025,-1.013,
408139003,0.018,-0.026,-1.014,
408177526,0.018,-0.025,-1.014,
408216049,0.018,-0.025,-1.013,
408254572,0.018,-0.025,-1.014,
408293096,0.018,-0.025,-1.014,
408331619,0.018,-0.025,-1.013,
408370143,0.019,-0.025,-1.013,
408408666,0.018,-0.025,-1.014,
408447189,0.019,-0.025,-1.014,
408485713,0.018,-0.025,-1.014,
408524236,0.018,-0.025,-1.014,
408562760,0.018,-0.025,-1.013,
408601283,0.018,-0.025,-1.013,
408639806,0.019,-0.025,-1.014,
408678330,0.018,-0.025,-1.013,
408716853,0.018,-0.025,-1.014,
408755376,0.019,-0.025,-1.014,
408793900,0.018,-0.025,-1.013,
408832423,0.018,-0.025,-1.013,
408870946,0.018,-0.025,-1.014,
408909469,0.018,-0.025,-1.014,
408947993,0.019,-0.025,-1.014,
408986516,0.019,-0.025,-1.014,
409025039,0.019,-0.025,-1.013,
409063562,0.019,-0.025,-1.013,
409102086,0.019,-0.025,-1.013,
409140609,0.019,-0.025,-1.013,
409179132,0.018,-0.025,-1.014,
409217656,0.019,-0.025,-1.014,
409256179,0.019,-0.025,-1.013,
409294702,0.019,-0.025,-1.013,
409333226,0.019,-0.025,-1.013,
409371750,0.019,-0.025,-1.013,
409410272,0.018,-0.025,-1.013,
409448796,0.019,-0.025,-1.013,
409487319,0.019,-0.025,-1.014,
409525842,0.019,-0.026,-1.014,
409564366,0.019,-0.025,-1.013,
409602889,0.019,-0.025,-1.014,
409641413,0.019,-0.025,-1.014,
409679936,0.019,-0.025,-1.014,
409718459,0.018,-0.025,-1.014,
409756983,0.019,-0.025,-1.013,
409795506,0.018,-0.025,-1.014,
409834029,0.019,-0.025,-1.013,
409872553,0.018,-0.025,-1.013,
409911076,0.019,-0.025,-1.014,
409949599,0.019,-0.025,-1.014,
409988123,0.019,-0.025,-1.013,
410026646,0.019,-0.025,-1.013,
410065169,0.019,-0.025,-1.014,
410103693,0.018,-0.025,-1.013,
410142216,0.019,-0.025,-1.013,
410180740,0.018,-0.025,-1.014,
410219263,0.019,-0.025,-1.014,
410257786,0.019,-0.025,-1.013,
410296309,0.019,-0.025,-1.014,
410334833,0.019,-0.025,-1.014,
410373356,0.019,-0.025,-1.013,
410411879,0.018,-0.025,-1.014,
410450403,0.018,-0.025,-1.014,
410488926,0.019,-0.025,-1.014,
410527450,0.019,-0.025,-1.014,
410565973,0.018,-0.025,-1.013,
410604496,0.019,-0.025,-1.014,
410643019,0.019,-0.026,-1.014,
410681542,0.018,-0.025,-1.014,
410720066,0.018,-0.025,-1.013,
410758589,0.019,-0.025,-1.013,
410797112,0.018,-0.025,-1.014,
410835636,0.019,-0.025,-1.014,
410874159,0.018,-0.025,-1.014,
410912683,0.018,-0.025,-1.014,
410951206,0.018,-0.025,-1.013,
410989729,0.019,-0.025,-1.013,
