#Format version: 1.0
time[us],accX[g],accY[g],accZ[g],
874935519,-0.04,0.154,-0.983,
874974044,-0.039,0.156,-0.979,
875012568,-0.048,0.179,-0.968,
875051092,-0.034,0.184,-1.029,
875089617,-0.041,0.096,-1.172,
875128141,-0.101,0.112,-1.317,
875166665,-0.055,0.091,-1.346,
875205190,0.015,0.013,-1.245,
875243714,-0.208,0.039,-0.743,
875282238,-0.308,0.191,-0.283,
875320763,-0.136,0.161,-0.126,
875359287,0.161,0.184,-0.346,
875397811,0.283,0.467,-0.967,
875436335,0.165,0.118,-1.676,
875474860,-0.073,-0.347,-2.085,
875513385,0.038,-0.36,-1.971,
875551909,0.102,0.078,-1.319,
875590433,-0.203,0.225,-0.391,
875628957,-0.196,0.3,-0.057,
875667482,0.092,0.252,-0.203,
875706007,0.312,0.211,-0.724,
875744530,-0.041,-0.038,-1.219,
875783055,-0.119,0.033,-1.549,
875821580,-0.018,-0.104,-1.615,
875860103,-0.007,-0.343,-1.743,
875898628,0.091,-0.285,-1.205,
875937152,-0.113,-0.014,-1.141,
875975677,-0.015,-0.495,-1.12,
876014201,-0.062,-0.086,-0.186,
876052725,0.284,0.585,1.791,
876091249,0.108,-0.162,0.792,
876129774,-1.071,-0.153,-2.485,
876168298,-1.377,-0.084,-3.939,
876206823,-0.878,-0.008,-2.872,
876245347,-0.172,-0.473,-0.763,
876283871,0.366,-0.369,0.646,
876322396,0.7,0.248,1.763,
876360920,0.317,0.096,0.996,
876399444,-0.411,0.066,-0.927,
876437969,-0.952,0.132,-3.053,
876476493,-0.857,0.332,-3.513,
876515017,-0.405,0.009,-1.956,
876553542,0.086,-0.359,-0.051,
876592066,0.577,-0.041,1.545,
876630590,0.385,0.235,1.334,
876669114,-0.4,-0.117,-0.881,
876707639,-0.957,0.126,-3.191,
876746163,-0.872,0.279,-3.349,
876784687,-0.478,-0.059,-1.935,
876823212,0.121,-0.43,0.065,
876861736,0.674,-0.017,1.622,
876900261,0.356,0.072,0.912,
876938785,-0.346,-0.006,-1.118,
876977309,-0.908,0.317,-2.904,
877015833,-0.916,0.593,-2.973,
877054358,-0.518,0.119,-1.729,
877092882,0.169,-0.318,0.065,
877131406,0.642,-0.09,1.076,
877169930,0.404,-0.061,0.626,
877208454,-0.266,-0.025,-0.894,
877246979,-0.883,0.378,-2.681,
877285503,-0.921,0.648,-2.884,
877324027,-0.488,0.12,-1.711,
877362552,0.136,-0.378,-0.152,
877401076,0.573,-0.368,0.887,
877439600,0.404,-0.241,0.561,
877478124,-0.24,-0.142,-1.106,
877516649,-0.768,0.263,-2.716,
877555173,-0.769,0.333,-2.743,
877593697,-0.472,0.081,-1.502,
877632222,0.142,-0.396,0.028,
877670746,0.549,-0.344,1.098,
877709270,0.356,-0.203,0.696,
877747795,-0.357,-0.124,-0.959,
877786319,-0.993,0.43,-2.891,
877824843,-1.017,0.667,-3.066,
877863367,-0.673,0.453,-1.714,
877901892,-0.022,-0.027,-0.166,
877940416,0.488,-0.679,0.207,
877978940,0.504,-0.871,0.037,
878017464,0.367,-1.338,-0.368,
878055989,-0.163,-0.825,-1.088,
878094513,-0.792,0.748,-1.711,
878133037,-1.008,1.401,-2.07,
878171561,-1.073,1.645,-1.775,
878210085,-0.478,0.376,-0.898,
878248610,0.475,-2.049,0.022,
878287134,0.708,-1.762,-0.048,
878325659,-0.031,-0.171,-0.502,
878364182,-1.035,1.206,-1.921,
878402707,-1.285,1.783,-2.247,
878441231,-0.976,1.121,-1.452,
878479755,-0.169,-0.594,-0.499,
878518280,0.64,-2.081,0.007,
878556804,0.57,-1.167,-0.039,
878595328,-0.229,-0.227,-0.796,
878633852,-1.055,1.331,-2.041,
878672377,-1.23,1.822,-2.049,
878710901,-0.985,1.282,-1.186,
878749425,-0.116,-0.778,-0.569,
878787949,0.666,-2.091,-0.11,
878826474,0.61,-1.35,-0.109,
878864998,-0.209,-0.171,-0.822,
878903522,-1.034,1.128,-1.979,
878942046,-1.119,1.656,-2.003,
878980571,-0.765,0.999,-1.256,
879019095,0.067,-0.797,-0.493,
879057619,0.691,-1.598,-0.22,
879096144,0.416,-0.734,-0.313,
879134668,-0.401,0.452,-1.119,
879173192,-0.868,1.171,-1.902,
879211716,-0.82,1.201,-1.7,
879250240,-0.395,0.434,-0.925,
879288765,0.228,-0.69,-0.209,
879327289,0.594,-1.412,-0.202,
879365813,0.245,-0.712,-0.506,
879404337,-0.558,0.502,-1.286,
879442862,-1.11,1.575,-2.174,
879481386,-0.999,1.369,-1.643,
879519910,-0.409,0.344,-0.706,
879558434,0.289,-0.923,-0.164,
879596959,0.546,-1.318,-0.191,
879635483,0.23,-0.629,-0.854,
879674007,-0.271,0.401,-1.609,
879712531,-0.413,0.532,-1.991,
879751055,-0.268,0.353,-1.471,
879789580,0.013,0.227,-0.316,
879828104,0.318,-0.047,0.741,
879866628,0.034,-0.298,-0.056,
879905152,-0.574,0.167,-2.116,
879943677,-0.625,-0.035,-2.748,
879982201,-0.41,-0.038,-1.894,
880020725,-0.016,-0.182,-0.584,
880059249,0.413,-0.065,0.753,
880097773,0.331,-0.035,0.505,
880136298,-0.363,0.118,-1.365,
880174822,-0.684,0.064,-2.744,
880213347,-0.55,0.009,-2.451,
880251871,-0.195,-0.092,-1,
880290395,0.33,-0.131,0.82,
880328919,0.419,0.001,1.008,
880367443,-0.181,-0.266,-0.502,
880405967,-0.803,0.514,-2.539,
880444492,-0.704,-0.012,-2.747,
880483016,-0.496,-0.019,-1.942,
880521540,-0.011,-0.171,-0.224,
880560064,0.462,-0.087,0.954,
880598589,0.313,-0.178,0.55,
880637113,-0.272,-0.125,-1.064,
880675637,-0.726,0.463,-2.807,
880714162,-0.637,0.108,-2.542,
880752685,-0.302,0.053,-1.254,
880791210,0.211,-0.286,0.462,
880829734,0.635,-0.447,1.272,
880868258,0.161,-0.387,-0.181,
880906782,-0.594,0.543,-2.887,
880945307,-0.519,-0.056,-2.932,
880983831,-0.292,0.019,-1.693,
881022355,0.182,-0.135,0.158,
881060880,0.53,-0.187,1.203,
881099404,0.216,-0.294,0.23,
881137928,-0.404,0.153,-1.626,
881176452,-0.63,0.239,-3.026,
881214976,-0.397,0.077,-2.055,
881253500,-0.049,0.006,-0.686,
881292025,0.435,-0.2,0.637,
881330549,0.545,-0.352,0.517,
881369073,0.008,-0.258,-0.478,
881407597,-0.532,0.347,-2.066,
881446122,-0.722,0.297,-2.487,
881484646,-0.597,0.491,-1.683,
881523170,-0.163,0.293,-0.642,
881561694,0.411,-1.133,-0.017,
881600218,0.579,-1.527,-0.308,
881638743,-0.128,-0.449,-0.577,
881677266,-0.72,0.691,-1.975,
881715791,-0.901,1.065,-1.977,
881754315,-0.591,0.83,-1.224,
881792840,-0.178,0.009,-0.444,
881831363,0.455,-1.335,-0.334,
881869888,0.367,-1.253,-0.618,
881908412,-0.203,-0.376,-0.841,
881946936,-0.679,1.027,-2.166,
881985460,-0.756,0.764,-1.554,
882023985,-0.463,0.396,-1.086,
882062509,-0.097,-0.584,-0.372,
882101033,0.345,-1.393,-0.414,
882139558,0.103,-1.175,-0.661,
882178081,-0.434,0.096,-2.238,
882216605,-0.736,0.423,-1.668,
882255130,-0.468,0.354,-1.429,
882293654,-0.235,0.018,-0.74,
882332179,0.157,-0.364,-0.375,
882370702,0.362,-0.701,-0.557,
882409227,0.205,-0.86,-0.745,
882447751,0.006,-0.965,-1.066,
882486275,-0.177,-1.055,-1.398,
882524799,0.079,-1.076,-0.631,
882563323,0.223,-0.688,0.093,
882601848,0.409,-0.701,0.286,
882640372,0.426,-0.723,0.48,
882678896,0.338,-0.594,0.083,
882717420,-0.239,-0.516,-0.972,
882755945,0.111,-1.484,-1.139,
882794468,-0.235,0.164,-1.275,
882832993,-0.023,0.61,-0.495,
882871517,0.03,0.101,-1.381,
882910041,0.026,0.231,-1.181,
882948566,0.054,-0.536,-0.017,
882987090,0.36,-1.605,-0.055,
883025614,0.276,-0.604,0.054,
883064138,0.361,-0.917,0.213,
883102662,0.186,-0.605,-0.185,
883141187,-0.237,-0.568,-1.089,
883179711,0.096,-1.593,-1.382,
883218235,-0.292,0.622,-0.758,
883256759,0.129,0.089,-0.91,
883295283,0.098,-1.036,-0.72,
883333808,0.113,-1.079,-0.213,
883372332,0.149,-1.084,0.443,
883410856,0.308,-1.066,-0.102,
883449380,0.191,-0.91,0.352,
883487905,0.008,-0.656,-0.512,
883526429,-0.237,-1.36,-1.082,
883564953,0.059,-1.441,-1.14,
883603477,-0.2,1.148,-0.562,
883642001,0.153,-0.409,-1.041,
883680526,0.09,-0.935,-0.709,
883719050,0.132,-1.136,-0.155,
883757574,0.259,-0.922,0.236,
883796099,0.314,-0.869,0.178,
883834622,0.219,-0.79,0.06,
883873147,-0.191,-0.476,-0.564,
883911671,-0.173,-1.419,-1.242,
883950195,-0.255,-1.222,-1.434,
883988720,-0.625,0.815,-0.641,
884027244,-0.705,0.06,-0.336,
884065768,-0.832,-0.252,-1.613,
884104292,-0.769,-0.673,-2.251,
884142816,-1.199,-0.881,-2.02,
884181341,-2.001,0.155,-1.077,
884219865,-0.861,0.696,0.325,
884258389,0.117,-0.544,-0.689,
884296913,0.164,0.001,0.463,
884335437,0.708,-0.287,1.56,
884373962,0.303,0.079,1.144,
884412486,-1.21,0.584,-0.515,
884451010,-1.274,0.332,-1.432,
884489534,-1.311,0.385,-2.195,
884528059,-0.86,-0.495,-1.897,
884566582,-0.673,0.096,-1.497,
884605107,-0.675,-0.648,-2.084,
884643631,-1.382,-0.313,-1.523,
884682155,-0.953,0.689,-0.543,
884720680,-0.053,0.288,0.002,
884759204,0.442,0.128,1.151,
884797728,0.775,-0.055,1.477,
884836252,0.412,0.069,1.445,
884874777,-0.842,-0.174,-0.044,
884913301,-1.174,0.48,-0.818,
884951825,-1.43,0.209,-2.119,
884990349,-0.875,-0.094,-2.468,
885028873,-0.578,-0.426,-1.504,
885067397,-0.577,-0.699,-2.156,
885105922,-1.524,-0.026,-1.636,
885144446,-0.615,0.819,0.15,
885182970,0.134,-0.262,0.581,
885221495,0.507,0.062,1.284,
885260018,0.64,0.001,1.429,
885298542,-0.01,0.304,1.368,
885337067,-1.01,0.119,-0.437,
885375591,-1.178,0.189,-1.101,
885414116,-1.226,0.248,-2.937,
885452640,-0.674,-0.52,-2.468,
885491163,-0.768,-0.483,-2.231,
885529688,-1.459,0.142,-1.314,
885568212,-0.575,0.737,0.187,
885606736,-0.01,-0.01,1.099,
885645260,0.505,-0.115,1.525,
885683785,0.435,-0.029,1.278,
885722309,-0.34,-0.157,0.111,
885760833,-0.78,0.159,-0.773,
885799357,-1.136,0.002,-2.016,
885837882,-0.838,0.267,-2.895,
885876406,-0.68,-0.258,-1.821,
885914930,-0.612,-0.172,-2.181,
885953454,-1.328,0.222,-1.119,
885991978,-0.58,1.596,1.276,
886030503,0.128,-0.528,2.15,
886069027,0.286,-0.681,0.076,
886107551,-0.162,0,-0.519,
886146075,-0.518,0.197,-1.585,
886184599,-0.461,0.481,-2.519,
886223123,-0.294,0.328,-0.831,
886261648,-0.018,-0.066,-1.228,
886300172,-0.3,-0.369,-0.375,
886338695,0.163,-0.459,0.462,
886377220,0.199,-0.728,0.488,
886415744,0.406,-1.39,-0.077,
886454268,-0.047,-0.684,-0.305,
886492793,-0.253,-0.934,-1.258,
886531317,0.01,-1.321,-1.188,
886569841,-0.402,0.521,-1.003,
886608365,-0.195,0.15,-0.588,
886646889,-0.074,-1.352,-0.874,
886685413,-0.026,-1.459,-1.049,
886723938,-0.07,-0.408,-1.288,
886762462,0.099,-0.392,-0.462,
886800986,0.101,-0.794,-1.174,
886839510,0.106,-0.86,-1.248,
886878034,0.069,-0.336,-0.571,
886916559,0.23,-0.001,0.092,
886955083,0.256,0.011,0.368,
886993607,-0.123,-0.189,0.028,
887032131,-0.607,-0.228,-1.762,
887070655,-0.741,-0.497,-2.774,
887109179,-0.697,-0.385,-2.434,
887147703,-0.41,-0.316,-1.565,
887186228,-0.035,-0.475,-0.739,
887224752,0.153,-0.346,-0.326,
887263276,0.279,-0.219,0.1,
887301801,0.289,-0.09,0.384,
887340324,0.108,-0.157,-0.057,
887378849,-0.132,-0.001,-0.771,
887417373,-0.445,0.478,-1.809,
887455896,-0.625,0.853,-2.54,
887494421,-0.472,0.497,-2.18,
887532945,-0.136,0.141,-1.023,
887571470,0.186,-0.248,-0.329,
887609993,0.33,-0.467,-0.08,
887648517,0.314,-0.205,0.422,
887687042,0.048,-0.169,-0.338,
887725566,-0.358,0.218,-1.567,
887764090,-0.56,0.471,-2.827,
887802614,-0.456,0.328,-2.354,
887841139,-0.236,0.07,-1.217,
887879662,0.206,-0.479,-0.069,
887918187,0.46,-0.536,0.801,
887956711,0.306,-0.307,0.688,
887995235,-0.192,-0.277,-0.519,
888033759,-0.853,0.816,-2.671,
888072283,-0.827,0.874,-2.934,
888110808,-0.569,0.674,-1.8,
888149332,-0.151,-0.079,-0.381,
888187855,0.373,-0.795,0.22,
888226380,0.597,-0.886,0.855,
888264904,0.088,-0.681,0.022,
888303429,-0.945,0.397,-1.76,
888341953,-1.397,1.348,-2.637,
888380476,-1.274,1.134,-1.765,
888419000,-0.382,0.021,-0.665,
888457525,0.893,-0.83,-0.312,
888496049,1.539,-1.218,-0.584,
888534573,0.82,-0.885,-1.079,
888573097,-0.487,0.019,-1.065,
888611621,-1.387,0.798,-1.447,
888650145,-1.625,0.841,-1.703,
888688670,-1.259,0.399,-0.984,
888727194,-0.625,0.035,-0.7,
888765718,0.053,0.033,-0.642,
888804242,0.803,-0.247,-0.732,
888842767,1.368,-0.774,-0.84,
888881291,1.083,-0.654,-0.872,
888919815,0.398,-0.17,-0.885,
888958339,-0.277,0.031,-1.046,
888996863,-0.903,0.143,-1.211,
889035387,-1.27,0.389,-1.367,
889073912,-1.302,0.342,-1.419,
889112435,-0.961,0.269,-0.993,
889150959,-0.395,0.035,-0.864,
889189483,0.234,0.034,-0.799,
889228008,0.911,-0.118,-0.85,
889266532,1.334,-0.509,-1.14,
889305056,1.07,-0.37,-0.969,
889343580,0.358,0.188,-0.895,
889382105,-0.322,0.282,-1.101,
889420628,-0.865,0.354,-1.117,
889459153,-1.148,0.424,-1.162,
889497677,-1.07,0.297,-1.019,
889536201,-0.703,0.238,-0.829,
889574725,-0.226,0.161,-0.793,
889613249,0.265,0.151,-0.855,
889651774,0.739,0.076,-1.002,
889690297,0.985,-0.108,-1.178,
889728822,0.769,-0.117,-1.156,
889767345,0.261,0.096,-1.01,
889805870,-0.334,0.235,-0.917,
889844394,-0.88,0.357,-1.119,
889882919,-1.125,0.414,-1.254,
889921443,-0.985,0.309,-1.013,
889959967,-0.606,0.228,-0.85,
889998490,-0.068,0.155,-0.776,
890037015,0.761,0.054,-0.864,
890075539,1.408,-0.495,-1.027,
890114063,1.266,-0.555,-1.129,
890152587,0.427,0.09,-0.868,
890191112,-0.384,0.349,-0.95,
890229635,-0.949,0.323,-1.15,
890268159,-1.305,0.362,-1.277,
890306684,-1.202,0.183,-1.204,
890345208,-0.793,0.142,-0.952,
890383732,-0.172,0.103,-0.724,
890422257,0.71,0.082,-0.914,
890460780,1.319,-0.248,-0.964,
890499305,1.263,-0.443,-1.098,
890537828,0.545,-0.056,-0.901,
890576353,-0.232,0.221,-0.834,
890614877,-0.835,0.249,-1.08,
890653401,-1.23,0.324,-1.265,
890691925,-1.263,0.487,-1.377,
890730449,-0.809,0.558,-1.246,
890768974,-0.029,0.279,-0.944,
890807498,0.79,-0.767,-0.494,
890846022,1.079,-1.443,-0.228,
890884546,0.637,-1.157,-0.326,
890923070,-0.269,-0.126,-1,
890961594,-1.279,1.4,-2.089,
891000118,-1.453,2.044,-2.192,
891038642,-0.891,1.237,-1.037,
891077167,0.025,-1.081,-0.417,
891115691,0.765,-2.527,-0.417,
891154214,0.553,-1.333,-0.073,
891192739,-0.243,-0.448,-0.566,
891231263,-1.341,1.435,-1.94,
891269787,-1.477,2.3,-2.02,
891308311,-1.059,1.764,-1.026,
891346835,-0.314,-0.278,-0.718,
891385360,0.554,-1.92,-0.604,
891423884,0.825,-1.823,-0.312,
891462408,0.313,-0.912,-0.195,
891500932,-0.797,0.094,-0.916,
891539456,-1.585,2.049,-2.28,
891577980,-1.467,2.099,-1.598,
891616504,-0.881,1.004,-0.794,
891655029,-0.024,-1.209,-0.835,
891693553,0.706,-2.051,-0.578,
891732077,0.569,-1.132,-0.133,
891770601,-0.181,-0.397,-0.47,
891809125,-1.165,1.101,-1.778,
891847649,-1.375,1.698,-2.132,
891886174,-1.073,1.52,-1.092,
891924697,-0.333,-0.006,-0.533,
891963222,0.608,-1.942,-0.641,
892001746,0.768,-1.606,-0.254,
892040270,0.068,-0.636,-0.314,
892078794,-1.038,0.253,-0.968,
892117318,-1.688,1.888,-2.511,
892155842,-1.512,1.519,-1.416,
892194367,-0.814,0.686,-0.426,
892232891,0.284,-1.587,-0.463,
892271415,0.839,-1.774,-0.4,
892309939,0.349,-0.797,-0.337,
892348463,-0.582,-0.229,-0.732,
892386987,-1.399,1.346,-2.036,
892425511,-1.504,1.539,-2.094,
892464036,-1.01,1.034,-0.858,
892502560,-0.27,-0.551,-0.324,
892541084,0.615,-1.947,-0.24,
892579607,0.591,-1.599,-0.229,
892618132,-0.222,-0.278,-0.311,
892656656,-1.046,0.854,-1.459,
892695181,-1.457,1.346,-2.7,
892733704,-1.102,0.98,-1.356,
892772229,-0.352,-0.095,-0.128,
892810752,0.84,-2.129,-0.159,
892849277,0.572,-1.016,-0.235,
892887801,-0.159,-0.225,-0.452,
892926325,-0.873,0.383,-1.496,
892964849,-1.277,1.525,-2.464,
893003374,-0.881,1.003,-1.507,
893041897,-0.137,0.072,-1.066,
893080422,-0.164,-0.135,-0.461,
893118946,0.075,0.001,0.724,
893157470,0.271,-0.332,0.675,
893195994,0.135,-0.313,0.784,
893234518,0.584,-0.794,0.937,
893273042,0.475,-0.979,0.643,
893311567,0.084,-0.563,-0.256,
893350090,-0.096,-1.334,-0.999,
893388614,0.178,-1.352,-0.871,
893427139,0,0.965,-0.783,
893465663,0.204,0.273,-0.249,
893504187,0.082,-1.705,1.22,
893542711,-0.115,-1.954,0.057,
893581235,0.236,-0.992,-0.109,
893619760,0.359,-1.26,-0.465,
893658284,-0.41,-0.881,-0.945,
893696808,-0.453,-2.3,-1.532,
893735332,-0.116,-1.758,-1.471,
893773856,-0.113,1.333,-0.584,
893812380,0.05,-1.127,1.35,
893850904,0.061,-2.007,0.681,
893889428,0.261,-0.873,-1.629,
893927952,-0.156,-0.787,-0.444,
893966476,-0.512,-1.579,-1.625,
894005001,-0.048,-2.814,-1.094,
894043525,-0.215,0.035,-1.364,
894082049,0.064,-0.496,0.597,
894120573,0.371,-1.896,0.446,
894159097,0.318,-0.622,-0.101,
894197621,0.455,-0.679,-0.092,
894236145,0.303,-1.26,0.427,
894274669,0.433,-1.542,0.339,
894313193,0.424,-1.421,-0.563,
894351718,0.409,-0.819,0.122,
894390242,0.479,-0.811,0.216,
894428766,0.362,-0.088,-0.039,
894467290,0.569,-0.065,0.075,
894505814,0.557,-0.093,-0.093,
894544338,0.708,0.201,0.365,
894582862,0.792,-0.29,-0.328,
894621386,0.972,-0.12,0.461,
894659911,1.016,-0.628,0.362,
894698435,0.874,-0.299,0.688,
894736959,0.43,0.1,1.177,
894775483,0.168,0.307,0.9,
894814007,0.162,0.59,0.757,
894852531,0.277,0.772,0.835,
894891055,0.431,0.523,1.094,
894929579,0.406,0.278,1.29,
894968104,0.115,0.776,1.299,
895006628,0.226,0.14,1.19,
895045151,0.518,-0.205,0.497,
895083676,0.788,-0.004,0.454,
895122200,0.428,0.209,0.034,
895160724,0.521,-0.055,-0.238,
895199248,0,0.192,-0.024,
895237772,-0.825,0.328,-0.009,
895276296,-1.214,-0.091,-0.604,
895314821,-1.233,-0.586,-1.083,
895353345,-1.09,-0.783,-1.253,
895391868,-1.244,-0.558,-1.209,
895430393,-1.301,-0.357,-1.134,
895468917,-1.164,-0.489,-1.194,
895507441,-0.979,-0.52,-1.011,
895545965,-0.871,-0.394,-1.102,
895584489,-1.037,-0.336,-0.962,
895623013,-0.695,-0.533,-0.843,
895661537,-0.476,-0.549,-1.197,
895700062,-0.818,-0.585,-1.134,
895738586,-0.972,-0.286,-1.124,
895777110,-1.145,-0.028,-1.091,
895815634,-0.656,0.348,0.451,
895854158,0.285,0.509,1.171,
895892682,0.601,0.429,1.536,
895931206,0.459,0.373,1.67,
895969731,0.213,0.663,1.756,
896008254,0.243,0.393,1.362,
896046779,0.286,0.227,1.253,
896085302,0.333,0.319,1.228,
896123827,0.327,0.257,0.961,
896162351,0.327,0.089,0.549,
896200875,0.183,0.146,0.362,
896239399,0.003,0.096,0.24,
896277923,-0.39,0.167,-0.134,
896316447,-0.458,-0.196,-0.091,
896354971,-0.421,-0.775,-1.005,
896393495,-0.333,-0.751,-2.45,
896432020,-0.177,-1.034,-2.759,
896470544,-0.27,-0.914,-2.761,
896509068,-0.319,-0.807,-1.843,
896547592,-0.072,-0.589,-0.992,
896586116,0.13,-0.434,-0.685,
896624641,0.106,-0.301,-0.207,
896663164,0.109,-0.128,0,
896701689,0.074,-0.183,-0.01,
896740213,-0.19,0.179,0.017,
896778737,0.086,0.122,0.071,
896817261,0.122,0.291,0.22,
896855785,0.527,0.273,1.087,
896894309,0.818,-0.348,1.958,
896932833,0.644,-0.465,2.82,
896971357,0.4,-0.151,2.399,
897009881,0.266,0.037,1.688,
897048406,0.322,-0.044,1.175,
897086929,0.313,0.036,0.814,
897125454,0.19,0.186,0.628,
897163978,-0.022,0.257,0.489,
897202502,-0.125,0.308,0.304,
897241026,-0.246,0.065,-0.068,
897279550,-0.156,0.073,-0.171,
897318074,-0.113,-0.244,-0.114,
897356599,-0.384,-0.473,-0.579,
897395123,-0.405,-0.315,-1.698,
897433647,-0.486,-0.149,-2.348,
897472171,-0.401,0.211,-2.889,
897510695,-0.424,0.564,-2.762,
897549219,-0.309,0.334,-2.002,
897587743,-0.379,0.098,-1.397,
897626268,-0.538,-0.007,-0.746,
897664791,-0.246,-0.198,-0.138,
897703315,-0.139,-0.193,0.063,
897741840,0.07,-0.178,0.027,
897780363,0.296,-0.426,-0.113,
897818888,0.609,-0.138,0.179,
897857412,0.943,-0.751,-0.906,
897895936,1.057,-1.151,-0.81,
897934460,1.013,-1.653,-0.915,
897972984,0.896,-1.592,-0.712,
898011509,0.714,-1.23,-0.472,
898050032,0.432,-0.953,-0.302,
898088557,0.122,-0.492,-0.193,
898127081,-0.204,-0.171,-0.16,
898165605,-0.49,0.307,-0.617,
898204128,-0.771,0.554,-0.444,
898242653,-0.551,0.937,-0.834,
898281177,-0.569,1.107,-0.898,
898319701,-0.457,1.129,-1.062,
898358225,-0.468,1.015,-1.065,
898396749,-0.496,1.158,-1.198,
898435273,-0.719,1.077,-1.091,
898473797,-0.588,0.652,-0.924,
898512322,-0.475,0.207,-0.444,
898550846,-0.15,-0.228,-0.595,
898589370,0.124,-0.228,-0.965,
898627894,0.106,-0.575,-0.687,
898666418,0.439,-1.047,-1.071,
898704942,0.05,-1.62,-1.052,
898743466,0.125,-1.407,-0.819,
898781991,0.001,-0.957,-0.703,
898820515,-0.797,-0.526,-0.671,
898859039,-1.125,0.223,-1.1,
898897563,-1.031,1.039,-1.367,
898936087,-0.649,1.719,-1.45,
898974611,-0.501,1.704,-1.308,
899013135,-0.476,1.136,-1.195,
899051659,-0.606,0.724,-1.186,
899090184,-0.779,0.51,-0.877,
899128707,-0.823,-0.12,-1.075,
899167231,-0.425,-1.532,-1.387,
899205755,0.094,-1.724,-1.127,
899244280,0.194,-1.356,-1.009,
899282804,-0.328,-1.152,-0.636,
899321328,-1.088,-0.391,-1.17,
899359852,-0.742,0.978,-1.867,
899398376,-0.305,1.863,-1.7,
899436900,-0.353,1.481,-1.198,
899475424,-0.298,0.794,-0.875,
899513949,-0.215,0.78,-0.788,
899552472,-0.563,0.684,-1.031,
899590996,-0.666,-0.728,-1.07,
899629520,-0.051,-1.24,-1.475,
899668044,0.118,-0.878,-1.808,
899706568,0.145,-0.487,-1.318,
899745092,0.04,-0.171,-1.236,
899783617,-0.117,0.616,-1.156,
899822141,0.029,1.558,-0.858,
899860665,0.171,1.531,-1.113,
899899189,-0.047,0.804,-1.321,
899937713,-0.271,-0.432,-1.129,
899976237,0.062,-1.092,-1.165,
900014761,0.074,-0.832,-1.011,
900053285,-0.177,-0.533,-0.744,
900091810,-0.234,-0.26,-1.103,
900130333,0.084,0.567,-1.78,
900168858,0.291,1.168,-1.832,
900207382,-0.057,1.084,-1.247,
900245906,-0.236,0.64,-1.062,
900284430,-0.461,0.111,-1.367,
900322954,-0.279,-1.08,-1.244,
900361478,0.127,-1.209,-1.409,
900400005,-0.152,-0.609,-1.176,
900438526,-0.221,-0.116,-1.077,
900477050,-0.182,0.525,-1.247,
900515574,0.058,1.035,-1.249,
900554098,0.126,0.961,-1.021,
900592623,-0.041,0.846,-0.809,
900631146,-0.454,0.469,-0.942,
900669670,-0.23,-0.576,-1.132,
900708195,0.066,-1.034,-1.556,
900746719,0.113,-0.998,-1.418,
900785243,-0.145,-0.488,-1.159,
900823767,-0.366,0.248,-1.301,
900862291,-0.248,1.486,-1.229,
900900815,-0.487,1.354,-0.939,
900939340,-0.625,0.154,-0.867,
900977863,-0.49,-0.354,-0.935,
901016387,-0.122,-0.404,-1.081,
901054911,0.128,-0.303,-1.217,
901093435,0.578,-0.244,-1.444,
901131960,0.665,-0.374,-1.33,
901170484,0.681,-0.555,-1.145,
901209008,0.438,-0.562,-1.109,
901247532,-0.175,-0.438,-1.032,
901286056,-0.819,0.173,-1.081,
901324580,-0.977,0.872,-1.048,
901363104,-0.605,0.747,-1.169,
901401628,-0.501,0.492,-1.125,
901440152,-0.408,-0.013,-0.984,
901478676,-0.012,-0.48,-0.996,
901517200,0.729,-0.702,-1.329,
901555724,1.095,-0.656,-1.411,
901594249,0.565,-0.561,-1.246,
901632773,0.145,-0.546,-1.21,
901671296,-0.238,-0.453,-1.221,
901709821,-0.598,0.001,-1.247,
901748345,-0.923,0.845,-1.032,
901786869,-1.041,1.004,-0.965,
901825393,-0.62,0.183,-1.018,
901863917,-0.181,-0.394,-1.106,
901902441,0.595,-0.724,-1.232,
901940965,1.044,-0.633,-1.387,
901979489,0.745,-0.431,-1.287,
902018014,0.47,-0.305,-1.174,
902056537,0.198,-0.364,-1.275,
902095062,-0.429,-0.215,-1.248,
902133586,-1.186,0.479,-0.949,
902172110,-1.085,0.744,-0.848,
902210634,-0.653,0.382,-0.956,
902249158,-0.365,0.065,-0.993,
902287682,0.089,-0.234,-1.167,
902326206,0.786,-0.555,-1.394,
902364730,1.001,-0.637,-1.335,
902403254,0.615,-0.466,-1.09,
902441778,0.401,-0.464,-1.185,
902480302,-0.127,-0.47,-1.31,
902518827,-0.793,-0.021,-1.256,
902557350,-1.237,0.848,-0.958,
902595874,-0.921,0.745,-0.961,
902634399,-0.478,0.227,-0.953,
902672922,-0.299,-0.047,-0.899,
902711447,-0.013,-0.37,-1.025,
902749971,0.59,-0.765,-1.367,
902788495,1.113,-0.89,-1.476,
902827019,0.55,-0.7,-1.228,
902865543,0.054,-0.757,-1.132,
902904067,-0.338,-0.577,-1.236,
902942591,-0.607,0.194,-1.26,
902981115,-0.301,0.65,-1.094,
903019639,-0.179,1.312,-0.859,
903058164,-0.385,0.88,-0.967,
903096687,-0.372,-0.318,-1.006,
903135212,-0.149,-1.096,-1.153,
903173735,0.153,-1.419,-1.139,
903212260,0.044,-0.856,-1.111,
903250783,-0.226,-0.597,-0.992,
903289308,-0.086,-0.238,-1.272,
903327832,-0.229,0.889,-1.164,
903366356,-0.549,1.316,-0.811,
903404880,-0.214,0.623,-0.972,
903443404,-0.165,0.061,-1.014,
903481928,-0.283,-0.36,-0.713,
903520453,-0.441,-0.523,-0.866,
903558976,0.329,-0.048,-1.436,
903597500,0.283,0.381,-1.276,
903636024,0,0.469,-1.044,
903674549,-0.028,0.464,-0.981,
903713073,-0.248,0.279,-0.899,
903751597,-0.289,0.14,-0.635,
903790120,-0.147,-0.069,-0.966,
903828645,0.643,0.256,-1.347,
903867169,0.364,0.352,-1.14,
903905693,0.192,0.528,-1.144,
903944217,-0.137,0.409,-0.994,
903982741,-0.436,0.374,-0.557,
904021265,0.138,0.083,-1.035,
904059789,0.795,0.228,-1.313,
904098313,0.636,0.12,-1.141,
904136837,0.038,0.208,-1.049,
904175362,-0.163,0.517,-0.727,
904213885,-0.136,0.369,-0.926,
904252410,0.597,0.238,-1.291,
904290934,0.945,-0.078,-1.184,
904329458,0.428,0.44,-1.349,
904367982,0.07,0.387,-1.12,
904406506,0.785,-0.117,-1.044,
904445030,0.677,-0.194,-1.255,
904483554,0.545,-0.346,-0.62,
904522078,-0.27,-0.279,-0.12,
904560603,-0.846,-0.534,0.639,
904599126,-0.51,-0.225,-0.411,
904637651,-0.147,-0.635,-1.609,
904676174,1.738,0.845,-3.633,
904714699,0.157,0.105,-2.386,
904753223,-0.252,-0.238,-1.438,
904791747,0.292,-0.326,-1.089,
904830271,0.269,0.266,-1.333,
904868795,0.208,-0.001,-0.912,
904907319,0.121,0.029,-0.383,
904945843,0.109,0.001,0.262,
904984367,-0.221,0.123,0.544,
905022892,-0.35,-0.387,0.214,
905061415,-0.485,-0.73,-0.726,
905099940,0.028,0.061,-2.637,
905138464,0.84,0.982,-3.297,
905176987,0.34,0.281,-2.396,
905215512,0.12,0.057,-1.889,
905254036,-0.137,0.128,-1.656,
905292560,-0.074,-0.213,-0.824,
905331084,0.133,0.091,-0.398,
905369608,0.202,0.477,-0.358,
905408132,0.496,0.649,-0.51,
905446656,0.552,0.626,-0.705,
905485181,0.087,0.425,-0.453,
905523705,-0.241,0.265,-0.337,
905562229,-1.169,0.588,0.976,
905600753,-0.856,0.03,1.336,
905639277,-0.515,-0.493,1.731,
905677801,-0.5,-0.321,2.231,
905716325,-0.582,-0.268,1.789,
905754850,-0.595,-0.084,2.001,
905793373,-0.668,-0.226,1.895,
905831897,-0.357,-0.536,0.726,
905870422,-0.241,-0.032,0.313,
905908946,-0.195,0.352,0.187,
905947470,-0.101,0.476,-0.085,
905985993,-0.065,0.458,-0.215,
906024518,-0.195,0.292,-0.322,
906063042,-0.392,0.021,-0.562,
906101566,-0.779,-0.003,-1.195,
906140090,-0.709,0.247,-1.932,
906178614,-0.208,0.529,-2.311,
906217138,-0.773,-0.211,-1.613,
906255662,-0.807,0.155,-1.58,
906294186,-0.371,0.486,-1.79,
906332710,-0.277,0.4,-1.72,
906371234,-0.393,0.322,-1.346,
906409758,-0.227,0.167,-1.128,
906448283,-0.077,0.037,-0.772,
906486807,-0.135,0.503,-0.71,
906525331,-0.434,0.508,-0.48,
906563855,-0.617,0.638,0.021,
906602379,-0.62,0.384,0.489,
906640903,-0.625,-0.331,0.812,
906679427,-0.797,-1.042,1.732,
906717951,-0.561,-1.794,2.937,
906756475,-0.509,-1.259,2.456,
906794999,-0.666,-0.443,2.027,
906833523,-0.655,-0.473,1.715,
906872047,-0.375,-0.712,0.836,
906910572,-0.579,-0.088,0.564,
906949096,-0.628,0.346,0.207,
906987619,-0.372,0.686,-0.274,
907026144,-0.11,0.576,-0.354,
907064667,-0.07,0.296,-0.438,
907103191,-0.64,0.288,-0.436,
907141716,-1.005,0.404,-1.378,
907180239,-0.745,0.877,-2.936,
907218763,-0.736,0.627,-2.967,
907257288,-0.664,0.555,-2.323,
907295811,-0.473,0.713,-1.923,
907334335,-0.476,0.535,-1.785,
907372860,-0.549,0.088,-1.319,
907411384,-0.482,0.072,-0.606,
907449908,-0.359,0.349,-0.084,
907488432,-0.086,0.321,0.082,
907526956,-0.039,0.353,0.137,
907565480,-0.117,0.351,0.487,
907604004,-0.178,0.161,0.551,
907642528,-0.348,-0.279,0.928,
907681052,-0.462,-0.877,2.179,
907719576,-0.147,-1.749,2.863,
907758100,-0.006,-1.189,2.588,
907796624,-0.05,-0.495,1.889,
907835148,-0.139,-0.35,1.186,
907873672,-0.062,-0.301,0.793,
907912196,-0.073,0.079,0.619,
907950720,-0.142,0.438,0.259,
907989244,-0.179,0.534,-0.093,
908027768,-0.105,0.361,-0.474,
908066292,-0.241,0.353,-0.495,
908104816,-0.574,0.136,-0.437,
908143340,-1.041,0.065,-1.123,
908181864,-1.07,-0.175,-2.013,
908220388,-0.977,-0.696,-1.944,
908258912,-0.857,-0.675,-1.886,
908297436,-0.726,-0.294,-1.535,
908335960,-0.535,-0.059,-1.145,
908374484,-0.423,0.601,-0.928,
908413008,-0.434,0.74,-0.781,
908451532,-0.439,0.111,-0.721,
908490056,-0.237,-0.473,-0.706,
908528580,-0.001,-0.894,-0.714,
908567104,0.053,-0.974,-0.599,
908605628,0.03,-1.011,-0.965,
908644152,-0.182,-1.058,-1.263,
908682676,-0.579,-0.938,-1.21,
908721200,-0.864,-0.187,-1.273,
908759724,-0.816,0.499,-1.338,
908798248,-0.605,0.914,-1.332,
908836772,-0.402,1.154,-1.108,
908875296,-0.595,1.253,-0.711,
908913820,-0.876,0.54,-0.834,
908952344,-1.136,-0.369,-1.105,
908990868,-0.466,-1.768,-1.257,
909029391,0.018,-1.955,-1.44,
909067916,-0.262,-1.285,-1.052,
909106440,-0.342,-0.91,-0.979,
909144964,-0.504,-0.207,-1.188,
909183488,-0.431,0.408,-1.398,
909222012,-0.295,0.915,-1.269,
909260535,-0.314,1.548,-0.8,
909299060,-0.607,0.96,-0.698,
909337583,-0.728,-0.264,-0.955,
909376108,-0.369,-1.292,-1.219,
909414631,0.001,-1.805,-1.532,
909453155,-0.226,-1.522,-1.335,
909491679,-0.575,-0.701,-1.3,
909530203,-0.711,0.249,-1.641,
909568727,-0.411,1.952,-1.537,
909607251,-0.52,1.569,-0.892,
909645775,-0.494,0.218,-0.908,
909684299,-0.365,-0.687,-0.808,
909722823,0.082,-1.638,-0.926,
909761347,0.23,-1.399,-1.131,
909799871,-0.069,-0.922,-1.074,
909838395,-0.289,-0.393,-1.086,
909876919,-0.431,0.332,-1.412,
909915442,-0.197,1.757,-1.538,
909953966,-0.466,1.754,-0.832,
909992491,-0.603,0.441,-0.949,
910031015,-0.672,-0.29,-0.871,
910069539,-0.261,-1.157,-1.26,
910108062,0.015,-0.998,-1.463,
910146587,0.031,-0.988,-1.388,
910185110,-0.212,-0.696,-1.327,
910223634,-0.649,0.181,-1.195,
910262158,-0.727,1.569,-0.813,
910300682,-0.812,1.376,-0.892,
910339206,-0.634,0.247,-1.443,
910377730,-0.56,-0.857,-1.436,
910416254,-0.291,-1.562,-0.767,
910454778,-0.233,-1.51,-0.366,
910493302,-0.392,-0.561,-0.915,
910531826,-0.833,0.923,-1.051,
910570350,-0.94,1.279,-1.162,
910608874,-0.601,0.162,-1.098,
910647398,-0.072,-0.319,-1.183,
910685921,0.502,-0.685,-1.242,
910724445,0.839,-0.666,-1.215,
910762969,0.708,-0.308,-1.11,
910801493,0.266,-0.188,-0.958,
910840018,-0.533,-0.384,-0.801,
910878541,-1.255,0.055,-0.742,
910917065,-1.215,0.369,-1.215,
910955590,-0.838,0.165,-1.503,
910994113,-0.762,-0.117,-1.029,
911032637,-0.555,-0.284,-0.696,
911071161,-0.373,0.012,-0.76,
911109685,-0.119,-0.025,-0.819,
911148209,0.183,-0.186,-1.121,
911186733,0.488,-0.403,-1.23,
911225257,0.794,-0.532,-1.442,
911263781,0.787,-0.558,-1.224,
911302305,0.404,-0.511,-0.938,
911340829,-0.467,-0.558,-0.885,
911379353,-1.385,-0.023,-0.905,
911417877,-1.31,0.302,-1.509,
911456401,-0.864,0.012,-1.514,
911494925,-0.617,-0.243,-0.997,
911533449,-0.417,-0.238,-0.724,
911571973,-0.096,-0.269,-0.72,
911610497,0.289,-0.4,-0.896,
911649021,0.579,-0.416,-1.196,
911687544,0.798,-0.429,-1.336,
911726068,0.841,-0.535,-1.364,
911764592,0.625,-0.696,-1.127,
911803116,-0.06,-0.806,-1.007,
911841640,-1.242,-0.399,-0.958,
911880164,-1.505,0.57,-1.229,
911918688,-1.028,0.537,-1.425,
911957212,-0.764,0.239,-1.171,
911995736,-0.645,-0.027,-0.784,
912034260,-0.331,-0.172,-0.732,
912072784,-0.071,-0.305,-0.886,
912111308,0.315,-0.586,-1.007,
912149832,0.611,-0.704,-1.128,
912188356,0.797,-0.754,-1.255,
912226879,0.745,-0.783,-1.081,
912265404,0.476,-0.8,-0.915,
912303928,-0.007,-0.966,-0.948,
912342452,-0.967,-0.785,-1.018,
912380975,-1.436,0.274,-1.335,
912419500,-1.081,0.517,-1.361,
912458023,-0.705,0.417,-1.326,
912496548,-0.493,0.403,-1.066,
912535072,-0.206,0.029,-0.777,
912573595,0.006,-0.381,-0.845,
912612120,0.088,-0.884,-1.135,
912650643,0.392,-1.275,-1.384,
912689167,0.105,-1.252,-1.241,
912727691,-0.368,-0.658,-1.106,
912766215,-0.636,0.167,-1.265,
912804739,-0.763,2.03,-1.377,
912843263,-0.616,1.221,-1.317,
912881787,-0.215,-0.16,-1.114,
912920311,-0.435,-0.968,-0.756,
912958835,-0.033,-1.624,-0.568,
912997359,0.177,-1.47,-1.093,
913035883,-0.033,-0.794,-1.256,
913074406,-0.162,-0.1,-1.365,
913112931,-0.317,1.178,-1.382,
913151454,-0.403,1.066,-0.978,
913189979,-0.34,0.014,-0.717,
913228502,-0.179,-0.855,-0.796,
913267026,0.204,-1.477,-0.954,
913305551,0.258,-1.362,-1.277,
913344075,-0.112,-0.857,-1.364,
913382599,-0.24,-0.141,-1.512,
913421122,-0.306,1.319,-1.514,
913459646,-0.551,1.278,-1.043,
913498171,-0.497,0.192,-0.65,
913536694,-0.185,-0.781,-0.681,
913575218,0.351,-1.484,-0.959,
913613742,0.468,-1.167,-1.562,
913652266,-0.016,-0.378,-1.641,
913690790,-0.307,0.29,-1.431,
913729314,-0.281,1.382,-1.124,
913767838,-0.31,1.463,-0.95,
913806362,-0.502,0.446,-0.942,
913844885,-0.146,-0.848,-0.831,
913883410,0.227,-1.47,-1.111,
913921934,0.311,-1.134,-1.292,
913960458,0.247,-0.037,-1.611,
913998981,-0.035,1.122,-1.463,
914037505,-0.165,1.657,-0.802,
914076030,-0.071,1.14,-0.76,
914114553,-0.176,0.227,-1.024,
914153078,0.117,-1.502,-0.878,
914191602,0.033,-1.148,-0.96,
914230126,-0.076,-0.371,-1.439,
914268650,-0.207,0.623,-1.737,
914307173,-0.1,2.151,-1.546,
914345698,-0.137,1.891,-0.939,
914384221,-0.288,0.813,-1.234,
914422746,-0.324,-0.729,-1.125,
914461270,0.183,-1.884,-0.805,
914499794,0.262,-0.918,-1.475,
914538318,-0.179,0.064,-1.481,
914576841,-0.1,1.69,-1.349,
914615365,-0.061,2.134,-0.907,
914653889,-0.148,0.768,-1.007,
914692413,-0.318,-0.357,-1.082,
914730937,0.125,-1.441,-1.239,
914769461,0.362,-0.891,-1.62,
914807985,0.071,0.266,-1.554,
914846509,0.088,0.999,-1.261,
914885033,-0.022,1.845,-0.689,
914923557,-0.052,1.234,-0.478,
914962081,-0.097,0.366,-0.829,
915000605,-0.053,-0.786,-0.808,
915039129,0.055,-1.606,-0.764,
915077653,-0.174,-0.766,-1.078,
915116177,-0.127,0.614,-1.701,
915154701,0.186,1.864,-1.898,
915193224,-0.153,1.603,-0.919,
915231749,-0.163,0.779,-0.741,
915270273,-0.426,0.277,-0.922,
915308797,-0.125,-0.843,-1.122,
915347320,0.417,-0.268,-1.624,
915385845,0.073,0.268,-1.431,
915424369,-0.116,0.159,-1.134,
915462893,-0.438,0.9,-0.964,
915501417,-0.091,1.969,-0.843,
915539940,-0.21,1.849,-0.466,
915578464,-0.407,0.957,-0.768,
915616989,-0.222,-0.321,-1.343,
915655512,0.135,-1.179,-1.816,
915694036,0.251,-0.359,-1.682,
915732561,-0.286,0.236,-1.037,
915771085,-0.297,1.33,-0.952,
915809608,0.036,2.103,-0.722,
915848133,-0.359,1.587,-0.709,
915886656,-0.279,0.031,-1.063,
915925180,0.176,-0.841,-1.155,
915963705,0.159,-1.012,-1.399,
916002228,0.032,-0.397,-1.216,
916040752,-0.259,0.006,-1.216,
916079276,-0.098,1.467,-1.547,
916117800,0.016,1.955,-1.11,
916156324,0.007,0.924,-1.106,
916194848,-0.524,-0.057,-1.364,
916233373,-0.182,-1.599,-0.655,
916271897,0.205,-1.467,-0.498,
916310420,-0.109,-0.578,-1.176,
916348944,-0.031,-0.027,-1.355,
916387468,0.392,1.508,-1.785,
916425992,0.232,1.698,-1.077,
916464516,-0.262,0.706,-1.113,
916503040,-0.274,-0.68,-1.226,
916541564,-0.213,-1.411,-1.071,
916580089,-0.076,-0.937,-0.977,
916618612,-0.006,-0.394,-1.079,
916657136,0.185,1.073,-1.563,
916695660,0.382,2.118,-1.276,
916734184,-0.127,0.835,-1.545,
916772708,-0.216,-1.068,-1.196,
916811232,-0.056,-1.68,-0.774,
916849756,-0.035,-0.878,-0.89,
916888280,-0.078,-0.167,-0.899,
916926804,0.076,1.147,-1.302,
916965328,0.256,2.025,-1.075,
917003852,-0.241,0.844,-1.194,
917042376,-0.163,-0.513,-0.964,
917080900,-0.28,-1.074,-1.044,
917119424,-0.174,-0.967,-0.915,
917157948,-0.051,-0.65,-1.084,
917196472,0.013,0.34,-1.607,
917234995,0.171,1.747,-1.269,
917273520,-0.19,1.508,-0.976,
917312044,-0.433,0.1,-1.212,
917350568,-0.216,-0.77,-0.906,
917389092,-0.059,-1.246,-0.753,
917427616,0.052,-1.223,-1.347,
917466139,-0.149,-0.05,-1.947,
917504664,-0.344,0.716,-1.645,
917543187,-0.209,0.444,-1.13,
917581712,-0.092,0.198,-1.161,
917620236,-0.155,-0.135,-0.689,
917658760,0.178,-0.278,-0.274,
917697283,0.481,-0.546,-0.134,
917735808,0.542,-0.772,-0.172,
917774331,0.535,-0.999,-0.071,
917812856,0.604,-1.085,-0.114,
917851380,0.602,-1.03,-0.278,
917889904,0.311,-0.755,-0.53,
917928429,0.35,-0.207,-0.674,
917966952,0.184,0.445,-0.942,
918005475,0.237,0.423,-0.854,
918043999,0.182,0.46,-0.802,
918082523,-0.082,0.699,-0.619,
918121047,-0.023,0.65,-0.708,
918159572,-0.146,0.819,-0.582,
918198095,-0.236,1.025,-0.818,
918236620,-0.186,1.205,-0.812,
918275143,-0.238,1.266,-0.943,
918313667,-0.112,1.012,-1.115,
918352192,-0.144,0.912,-0.83,
918390716,0.013,0.781,-0.599,
918429239,0.102,0.614,-0.259,
918467763,0.452,-0.162,-0.242,
918506287,0.516,-0.312,-0.341,
918544811,0.347,-0.329,-0.077,
918583336,0.378,-0.827,0.116,
918621859,0.38,-1.144,0.235,
918660384,0.424,-1.344,0.355,
918698908,0.513,-1.569,0.345,
918737432,0.577,-1.552,0.071,
918775955,0.536,-1.321,-0.32,
918814479,0.22,-1.055,-0.205,
918853004,0.34,-0.673,-0.133,
918891528,0.235,-0.343,-0.799,
918930052,0.446,-0.332,-0.46,
918968575,0.398,-0.189,-0.258,
919007099,0.233,0.06,-0.218,
919045623,0.045,0.188,-0.32,
919084147,-0.157,0.312,-0.55,
919122672,-0.502,0.557,-0.851,
919161196,-0.742,1.068,-1.62,
919199719,-0.776,1.011,-1.698,
919238243,-0.696,0.68,-1.734,
919276767,-0.52,0.667,-1.714,
919315291,-0.565,0.786,-1.277,
919353815,-0.436,0.598,-0.594,
919392340,-0.091,0.622,-0.105,
919430863,0.218,0.237,0.062,
919469387,0.387,-0.12,0.214,
919507911,0.497,-0.456,0.434,
919546435,0.539,-0.49,0.742,
919584959,0.513,-1.009,0.903,
919623483,0.484,-1.713,1.634,
919662007,0.426,-1.161,0.794,
919700531,0.479,-0.847,0.37,
919739055,0.454,-0.768,0.089,
919777579,0.487,-0.728,-0.258,
919816103,0.456,-0.34,-0.528,
919854627,0.443,0.065,-0.583,
919893151,0.37,0.233,-0.444,
919931675,0.251,0.514,-0.359,
919970199,0.229,0.636,-0.447,
920008723,0.026,0.573,-0.165,
920047247,-0.081,0.757,-0.145,
920085771,-0.365,0.804,-0.441,
920124295,-0.454,1.244,-0.989,
920162819,-0.497,1.472,-1.365,
920201343,-0.555,1.469,-0.949,
920239867,-0.51,1.632,-0.684,
920278391,-0.362,1.45,-0.474,
920316916,-0.293,0.933,0.047,
920355439,0.08,0.739,0.156,
920393963,0.086,0.558,0.055,
920432487,0.41,0.447,-0.168,
920471011,0.434,0.194,-0.139,
920509535,0.576,-0.024,-0.218,
920548059,0.494,-0.444,-0.322,
920586583,0.519,-0.394,-0.882,
920625107,0.398,-0.529,-0.532,
920663631,0.365,-1.386,-0.734,
920702155,0.447,-1.954,-1.249,
920740680,0.449,-1.318,-0.951,
920779203,0.418,-0.956,-0.625,
920817727,0.373,-0.703,-0.404,
920856251,0.416,-0.225,-0.209,
920894776,0.541,0.135,0.073,
920933299,0.461,0.261,0.283,
920971823,0.505,0.269,0.352,
921010347,0.354,0.176,0.288,
921048871,0.081,0.295,0.538,
921087396,0.015,0.524,0.53,
921125919,-0.2,0.915,0.536,
921164443,-0.241,1.443,0.661,
921202967,-0.486,1.545,1.258,
921241491,-0.568,1.422,1.116,
921280015,-0.424,1.505,0.92,
921318539,-0.304,1.542,0.814,
921357064,-0.332,1.335,0.749,
921395587,-0.29,0.947,0.585,
921434111,-0.078,0.785,0.404,
921472636,0.063,0.696,0.219,
921511160,0.048,0.493,0.315,
921549683,0.11,0.247,0.286,
921588207,0.059,0.04,0.155,
921626732,-0.285,-0.18,0.5,
921665255,-0.479,-0.902,0.388,
921703779,-0.641,-1.92,0.349,
921742304,-0.645,-2.774,0.377,
921780828,-0.475,-2.465,0.465,
921819351,-0.367,-1.689,0.342,
921857876,-0.298,-1.336,0.371,
921896399,-0.227,-1.058,0.405,
921934923,0.049,-0.727,0.451,
921973447,0.001,-0.355,0.3,
922011972,0.175,0.047,0.15,
922050496,0.328,0.283,0.061,
922089020,0.187,0.393,0.203,
922127543,0.04,0.389,0.106,
922166067,-0.044,0.391,-0.408,
922204592,-0.223,0.401,-0.971,
922243115,-0.087,0.298,-1.585,
922281639,-0.325,-0.036,-2.427,
922320163,-0.346,0.223,-2.562,
922358687,-0.198,0.596,-2.407,
922397212,-0.291,0.43,-2.227,
922435735,-0.198,0.148,-1.92,
922474259,-0.291,0.204,-1.262,
922512783,-0.237,-0.027,-0.527,
922551307,0.026,-0.004,-0.154,
922589831,0.266,0.088,-0.013,
922628355,0.174,0.199,0.304,
922666879,0.156,0.33,0.563,
922705403,0.139,0.377,0.704,
922743927,-0.011,0.224,0.76,
922782451,-0.275,-0.379,0.901,
922820975,-0.602,-1.521,1.097,
922859499,-0.68,-2.448,1.183,
922898023,-0.297,-2.1,0.836,
922936547,-0.17,-1.433,0.516,
922975071,-0.12,-1.006,0.561,
923013594,-0.012,-0.766,0.602,
923052119,-0.005,-0.624,0.575,
923090643,-0.013,-0.22,0.436,
923129167,-0.06,0.126,0.076,
923167690,-0.096,0.292,-0.192,
923206214,-0.098,0.282,-0.424,
923244738,-0.116,0.388,-1.011,
923283263,-0.04,0.652,-1.536,
923321786,-0.256,0.473,-1.734,
923360311,-0.438,0.502,-2.033,
923398835,-0.164,0.89,-1.494,
923437358,-0.393,1.143,-1.731,
923475882,-0.495,0.769,-1.169,
923514407,-0.152,0.679,-0.701,
923552930,-0.088,0.442,-0.87,
923591454,-0.099,0.3,-0.343,
923629978,0.243,-0.337,-0.279,
923668502,0.467,-0.499,-0.396,
923707026,0.35,-0.411,-0.995,
923745550,0.229,-0.542,-1.174,
923784074,-0.148,-0.091,-1.376,
923822598,-0.262,0.603,-1.468,
923861122,-0.182,1.033,-1.334,
923899646,-0.073,1.144,-1.242,
923938170,0.039,0.914,-1.1,
923976693,-0.127,0.674,-0.925,
924015218,-0.089,0.145,-0.982,
924053742,-0.125,-0.584,-1.093,
924092265,0.182,-0.958,-1.255,
924130789,0.149,-0.726,-1.353,
924169313,-0.116,-0.411,-1.26,
924207837,-0.305,0.191,-1.433,
924246362,-0.243,0.842,-1.539,
924284885,-0.247,1.313,-1.242,
924323410,-0.219,0.827,-1.092,
924361933,-0.395,0.292,-1.009,
924400457,-0.251,-0.662,-0.852,
924438981,0.229,-1.219,-0.861,
924477505,0.635,-0.938,-1.471,
924516029,0.238,-0.612,-1.414,
924554553,0.016,-0.312,-1.11,
924593077,-0.065,0.242,-1.302,
924631601,-0.061,0.68,-1.147,
924670125,-0.372,1.018,-1.079,
924708648,-0.397,1.045,-0.669,
924747172,-0.233,0.707,-0.718,
924785696,-0.091,0.067,-0.855,
924824221,0.147,-0.632,-1.012,
924862744,0.348,-0.711,-0.999,
924901268,0.395,-0.081,-1.328,
924939792,0.29,0.366,-1.428,
924978316,0.195,0.976,-1.123,
925016840,-0.015,1.111,-0.705,
925055364,0.025,0.316,-0.663,
925093888,0.145,-0.201,-0.771,
925132412,0.258,-0.609,-0.925,
925170936,0.052,-0.815,-1.029,
925209460,-0.016,-0.143,-1.27,
925247984,0.027,0.855,-1.472,
925286507,-0.079,1.368,-1.082,
925325031,-0.038,1.146,-1.09,
925363556,-0.136,0.369,-1.219,
925402080,-0.199,-0.517,-1.08,
925440603,0.2,-1.072,-1.093,
925479127,0.328,-0.828,-1.227,
925517651,0.019,-0.461,-1.05,
925556175,-0.046,0.101,-1.124,
925594699,-0.037,1.166,-1.224,
925633223,-0.014,1.255,-1.129,
925671747,0.05,0.709,-1.203,
925710271,-0.07,0.067,-1.076,
925748795,-0.11,-0.73,-0.868,
925787319,0.375,-1.007,-0.977,
925825843,0.227,-0.535,-1.056,
925864367,0.313,-0.138,-1.077,
925902890,0.005,0.531,-1.03,
925941414,0.311,0.501,-1.393,
925979938,0.352,0.242,-1.419,
926018463,0.137,-0.262,-0.897,
926056987,0.387,-0.32,-0.983,
926095510,0.455,-0.299,-1.214,
926134034,0.429,-0.436,-0.717,
926172558,0.263,-0.343,-0.304,
926211082,0.018,-0.34,0.06,
926249606,-0.214,-0.317,-0.354,
926288130,-0.255,-0.168,-1.226,
926326654,-0.29,0.273,-1.905,
926365178,-0.245,0.366,-2.42,
926403702,-0.404,-0.027,-1.983,
926442225,-0.339,-0.125,-1.665,
926480750,-0.391,-0.048,-1.267,
926519273,-0.226,-0.232,-0.487,
926557797,0.119,-0.051,0.102,
926596322,0.489,-0.021,0.079,
926634845,0.619,-0.075,-0.018,
926673370,0.307,-0.188,0.271,
926711893,-0.258,-0.304,-0.175,
926750417,-0.525,-0.093,-1.477,
926788941,-0.1,0.554,-2.718,
926827465,0.032,0.48,-2.893,
926865989,-0.281,0.164,-2.212,
926904513,-0.299,-0.272,-1.413,
926943037,-0.134,-0.387,-0.54,
926981561,0.187,-0.093,0.133,
927020084,0.428,0.135,0.465,
927058609,0.37,-0.008,0.587,
927097133,-0.178,-0.021,0.221,
927135656,-0.546,-0.35,-0.768,
927174180,-0.389,-0.187,-2.203,
927212704,-0.08,0.223,-2.802,
927251229,-0.325,0.375,-2.434,
927289752,-0.565,0.261,-1.568,
927328276,-0.455,-0.198,-0.893,
927366800,-0.069,-0.845,-0.348,
927405324,0.259,-1.359,0.137,
927443848,0.021,-1.121,-0.173,
927482372,-0.473,-0.904,-1.134,
927520896,-0.631,0.125,-2.257,
927559419,-0.512,1.008,-2.431,
927597944,-0.79,1.455,-0.986,
927636467,-0.975,0.833,-0.938,
927674991,-0.879,-0.453,-0.922,
927713515,-0.469,-1.74,-0.797,
927752039,-0.05,-2.362,-1.057,
927790563,-0.432,-1.102,-1.046,
927829087,-0.457,-0.217,-1.3,
927867611,-0.365,0.463,-1.652,
927906135,-0.357,1.375,-1.344,
927944659,-0.557,0.947,-0.762,
927983182,-0.475,-0.294,-0.728,
928021707,-0.14,-1.391,-0.782,
928060230,-0.081,-1.756,-0.937,
928098755,-0.234,-1.112,-1.089,
928137278,-0.288,-0.498,-1.197,
928175802,-0.171,0.236,-1.627,
928214326,-0.192,1.289,-1.642,
928252850,-0.477,0.795,-0.999,
928291374,-0.438,-0.29,-0.86,
928329898,-0.282,-1.377,-0.451,
928368421,-0.136,-1.755,-0.403,
928406946,-0.498,-1.16,-0.554,
928445469,-0.472,-0.848,-1.19,
928483993,-0.322,-0.102,-2.279,
928522517,-0.421,0.689,-1.976,
928561041,-0.676,0.846,-1.273,
928599565,-0.659,-0.005,-1.043,
928638089,-0.511,-1.115,-0.651,
928676613,0.022,-1.618,-0.071,
928715137,-0.012,-1.389,-0.39,
928753661,-0.098,-0.797,-0.867,
928792185,-0.235,-0.645,-1.047,
928830708,-0.318,-0.153,-1.464,
928869233,-0.379,0.614,-1.629,
928907757,-0.508,0.763,-1.349,
928946280,-0.486,-0.096,-0.936,
928984804,-0.263,-1.085,-0.658,
929023328,0.07,-1.573,-0.998,
929061852,-0.048,-1.191,-1.186,
929100376,-0.387,-0.529,-0.995,
929138900,-0.288,0.685,-1.496,
929177424,-0.388,2.084,-1.442,
929215948,-0.611,0.435,-1.221,
929254472,-0.263,-1.052,-0.694,
929292996,0.376,-1.822,-0.031,
929331520,0.31,-0.991,-0.12,
929370043,0.091,-0.839,-0.73,
929408567,0.002,-0.732,-1.394,
929447091,-0.084,-0.792,-1.36,
929485615,-0.217,-0.633,-1.484,
929524139,-0.22,-0.649,-1.381,
929562663,-0.067,-1.027,-1.028,
929601187,0.058,-0.973,-0.439,
929639711,0.305,-0.695,-0.444,
929678235,0.414,-0.54,-0.137,
929716758,0.552,-0.506,-0.26,
929755282,0.513,-0.36,-0.157,
929793807,0.508,-0.265,-0.07,
929832330,0.254,-0.176,0.349,
929870854,0.345,0.102,0.871,
929909378,0.234,0.187,1.117,
929947902,0.205,0.086,1.497,
929986426,0.195,0.219,1.66,
930024950,0.092,0.209,1.611,
930063474,0.094,0.27,1.773,
930101998,0.112,0.204,1.583,
930140522,0.209,0.115,0.883,
930179045,0.264,-0.057,0.439,
930217569,0.083,0.257,0.146,
930256093,0.139,0.211,-0.125,
930294617,-0.16,0.095,-0.538,
930333141,-0.135,-0.187,-0.64,
930371665,-0.242,-0.526,-0.658,
930410189,-0.571,-0.783,-1.029,
930448713,-0.712,-1.003,-1.841,
930487237,-0.78,-0.92,-2.074,
930525760,-0.739,-0.55,-1.393,
930564284,-0.637,0.03,-1.156,
930602808,-0.557,-0.285,-1.074,
930641332,-0.375,-0.451,-0.969,
930679856,-0.055,-0.717,-0.762,
930718380,0.274,-0.867,-0.496,
930756904,0.266,-0.963,-0.558,
930795428,0.098,-0.815,-0.532,
930833951,-0.058,-0.553,-0.631,
930872476,-0.4,-0.319,-1.341,
930911000,-0.54,0.268,-1.827,
930949524,-0.507,0.066,-1.147,
930988047,-0.429,-0.38,-0.72,
931026572,-0.36,-0.5,-0.681,
931065095,-0.374,-0.297,-0.908,
931103619,-0.29,-0.29,-1.017,
931142143,0.021,-0.348,-1.093,
931180667,0.483,-0.259,-1.257,
931219190,0.963,-0.424,-1.102,
931257715,1.12,-0.812,-0.857,
931296238,0.713,-0.671,-0.966,
931334762,0.066,-0.124,-0.913,
931373287,-0.445,0.044,-1.034,
931411810,-0.816,0.125,-1.15,
931450334,-0.997,0.377,-1.042,
931488858,-0.974,0.322,-1.02,
931527382,-0.777,0.185,-1.061,
931565905,-0.461,0.153,-0.831,
931604430,-0.071,0.062,-0.805,
931642954,0.399,-0.013,-1.049,
931681478,0.902,-0.183,-0.997,
931720004,1.152,-0.464,-0.908,
931758525,0.958,-0.376,-0.917,
931797049,0.409,-0.134,-0.878,
931835573,-0.13,0.032,-1.022,
931874097,-0.529,0.06,-1.204,
931912621,-0.808,0.237,-1.236,
931951144,-0.834,0.203,-1.133,
931989668,-0.726,0.121,-1.027,
932028192,-0.57,0.096,-0.909,
932066716,-0.364,0.086,-0.857,
932105240,-0.114,0.048,-0.94,
932143764,0.324,0.009,-1.043,
932182288,0.827,-0.422,-0.915,
932220812,1.068,-0.657,-0.942,
932259336,0.885,-0.429,-0.85,
932297860,0.443,-0.149,-0.884,
932336384,0.013,-0.141,-0.993,
932374907,-0.448,-0.026,-1.049,
932413432,-0.833,0.238,-1.231,
932451955,-0.945,0.29,-1.355,
932490479,-0.85,0.429,-1.318,
932529003,-0.566,0.491,-1.249,
932567527,-0.219,0.243,-0.914,
932606050,0.177,-0.472,-0.663,
932644575,0.495,-1.138,-0.749,
932683099,0.471,-0.921,-0.617,
932721622,0.355,-0.722,-0.571,
932760146,0.034,-0.477,-0.648,
932798670,-0.339,0.419,-1.352,
932837194,-0.642,1.018,-1.914,
932875718,-0.521,0.582,-1.492,
932914242,-0.294,0.525,-0.962,
932952766,0.04,-0.243,-0.586,
932991290,0.345,-0.839,-0.688,
933029814,0.345,-0.874,-0.729,
933068338,0.144,-0.68,-0.661,
933106861,-0.256,-0.182,-0.756,
933145385,-0.659,0.971,-1.337,
933183909,-0.814,1.281,-1.833,
933222433,-0.638,0.699,-1.271,
933260957,-0.232,0.012,-0.745,
933299481,0.343,-0.952,-0.712,
933338005,0.484,-0.926,-0.586,
933376529,0.26,-0.514,-0.525,
933415052,-0.13,-0.119,-0.797,
933453576,-0.488,1.094,-1.541,
933492100,-0.637,0.991,-1.673,
933530624,-0.449,0.564,-1.05,
933569148,-0.02,-0.333,-0.606,
933607672,0.404,-1.023,-0.685,
933646196,0.377,-0.914,-0.633,
933684720,0.101,-0.651,-0.59,
933723244,-0.314,-0.036,-0.852,
933761767,-0.642,1.135,-1.827,
933800291,-0.694,0.622,-1.69,
933838815,-0.553,0.54,-1.165,
933877339,-0.156,-0.257,-0.532,
933915863,0.323,-1.066,-0.471,
933954387,0.401,-1.094,-0.597,
933992911,0.151,-0.639,-0.646,
934031435,-0.202,-0.21,-0.828,
934069958,-0.531,0.886,-1.702,
934108483,-0.7,0.82,-1.859,
934147007,-0.437,0.248,-1.039,
934185530,0.001,-0.382,-0.545,
934224054,0.369,-1.097,-0.399,
934262578,0.374,-1.131,-0.569,
934301102,0.098,-0.634,-0.683,
934339626,-0.205,0.31,-1.083,
934378150,-0.473,1.145,-1.81,
934416674,-0.379,0.534,-1.27,
934455198,0.008,-0.289,-0.695,
934493722,0.383,-1.027,-0.604,
934532245,0.354,-0.859,-0.596,
934570770,0.062,-0.267,-0.722,
934609294,-0.232,0.6,-1.289,
934647817,-0.398,0.742,-1.623,
934686341,-0.216,0.098,-1.201,
934724865,0.108,-0.391,-0.706,
934763389,0.225,-0.551,-0.701,
934801913,0.098,-0.308,-0.951,
934840437,-0.136,0.243,-1.483,
934878961,-0.133,0.418,-0.901,
934917485,-0.045,0.046,-0.931,
934956009,0.08,0.172,-0.845,
934994532,0.2,0.012,-1.015,
935033057,0.014,-0.22,-1.044,
935071580,0.045,-0.707,-0.976,
935110104,0.219,-0.428,-0.985,
935148628,0.154,-0.256,-0.835,
935187152,0.348,0.144,-0.823,
935225676,0.855,0.367,-1.153,
935264200,0.904,0.441,-1.186,
935302724,0.667,0.431,-0.973,
935341248,0.096,-0.336,-0.746,
935379772,-0.312,-0.982,-0.798,
935418295,-0.294,-0.669,-0.948,
935456819,0.208,0.071,-0.846,
935495343,0.796,0.862,-1.001,
935533867,0.909,0.781,-1.2,
935572391,0.675,0.489,-1.101,
935610915,0.09,-0.158,-0.735,
935649439,-0.474,-1.042,-0.733,
935687963,-0.484,-1.214,-0.763,
935726487,-0.174,-0.693,-0.82,
935765011,0.366,0.163,-0.885,
935803535,0.946,0.789,-1.231,
935842059,1.012,0.673,-1.346,
935880582,0.763,0.478,-1.081,
935919107,0.254,0.115,-0.72,
935957630,-0.305,-0.731,-0.744,
935996155,-0.592,-1.112,-0.764,
936034678,-0.425,-0.809,-0.713,
936073202,-0.061,-0.293,-0.826,
936111726,0.556,0.257,-1.074,
936150250,0.931,0.637,-1.432,
936188774,0.777,0.478,-1.247,
936227298,0.514,0.281,-1.045,
936265822,0.088,-0.099,-0.804,
936304346,-0.287,-0.566,-0.748,
936342870,-0.585,-0.887,-0.663,
936381394,-0.358,-0.696,-0.849,
936419918,0.151,0.048,-1.019,
936458442,0.632,0.562,-1.184,
936496965,0.777,0.562,-1.297,
936535490,0.549,0.353,-1.078,
936574013,0.199,0.088,-0.834,
936612538,-0.306,-0.597,-0.791,
