dd/mm/yyyy,hh:mm:ss.ms,accX[mg],accY[mg],accZ[mg],gyroX[mdps],gyroY[mdps],gyroZ[mdps],magX[mG],magY[mG],magZ[mG],T[degC],rH[%],Press[hPa],
16/06/2023,20:39:40.632,-943,61,-223,-41,-15,67,670,181,495,0.000000,0.000000,0.000000
16/06/2023,20:39:40.632,-943,61,-223,-41,-15,67,670,181,495,0.000000,0.000000,0.000000
16/06/2023,20:39:40.633,-943,61,-223,-41,-15,67,670,181,495,0.000000,0.000000,0.000000
16/06/2023,20:39:40.633,-943,61,-223,-41,-15,67,670,181,495,0.000000,0.000000,0.000000
16/06/2023,20:39:40.634,-943,61,-223,-41,-15,67,670,181,495,0.000000,0.000000,0.000000
16/06/2023,20:39:40.637,-943,61,-223,-41,-15,67,670,181,495,0.000000,0.000000,0.000000
16/06/2023,20:39:40.638,-943,61,-223,-41,-15,67,670,181,495,0.000000,0.000000,0.000000
16/06/2023,20:39:40.638,-943,61,-223,-41,-15,67,670,181,495,0.000000,0.000000,0.000000
16/06/2023,20:39:40.639,-943,61,-223,-41,-15,67,670,181,495,0.000000,0.000000,0.000000
16/06/2023,20:39:40.639,-943,61,-223,-41,-15,67,670,181,495,0.000000,0.000000,0.000000
16/06/2023,20:39:40.643,-946,78,-228,-41,-15,67,670,181,495,0.000000,0.000000,0.000000
16/06/2023,20:39:40.646,-956,83,-220,-66,-8,64,664,163,504,0.000000,0.000000,0.000000
16/06/2023,20:39:40.655,-965,86,-213,-30,4,71,673,169,462,0.000000,0.000000,0.000000
16/06/2023,20:39:40.665,-970,84,-206,3,29,76,669,163,487,0.000000,0.000000,0.000000
16/06/2023,20:39:40.674,-970,84,-206,13,48,72,669,163,487,0.000000,0.000000,0.000000
16/06/2023,20:39:40.683,-974,77,-189,17,57,70,660,157,469,0.000000,0.000000,0.000000
16/06/2023,20:39:40.693,-961,60,-190,33,65,61,676,171,490,0.000000,0.000000,0.000000
16/06/2023,20:39:40.702,-944,52,-203,68,68,76,660,174,490,0.000000,0.000000,0.000000
16/06/2023,20:39:40.712,-940,65,-216,83,29,60,676,150,495,0.000000,0.000000,0.000000
16/06/2023,20:39:40.721,-932,88,-239,108,14,75,660,169,499,0.000000,0.000000,0.000000
16/06/2023,20:39:40.730,-956,114,-213,132,24,72,669,171,480,0.000000,0.000000,0.000000
16/06/2023,20:39:40.740,-967,139,-194,130,-9,61,681,159,495,0.000000,0.000000,0.000000
16/06/2023,20:39:40.749,-950,151,-210,134,3,58,678,165,483,0.000000,0.000000,0.000000
16/06/2023,20:39:40.758,-940,140,-216,106,-7,48,678,165,483,0.000000,0.000000,0.000000
16/06/2023,20:39:40.767,-936,126,-234,52,-26,33,670,165,498,0.000000,0.000000,0.000000
16/06/2023,20:39:40.777,-945,119,-239,6,-36,18,672,151,487,0.000000,0.000000,0.000000
16/06/2023,20:39:40.787,-953,105,-228,-14,-28,12,675,162,478,0.000000,0.000000,0.000000
16/06/2023,20:39:40.796,-956,81,-216,-3,-3,10,667,166,490,0.000000,0.000000,0.000000
16/06/2023,20:39:40.805,-949,61,-205,18,10,12,642,162,496,0.000000,0.000000,0.000000
16/06/2023,20:39:40.815,-934,53,-199,46,29,14,682,165,490,0.000000,0.000000,0.000000
16/06/2023,20:39:40.824,-929,58,-204,67,31,17,672,159,486,0.000000,0.000000,0.000000
16/06/2023,20:39:40.833,-935,54,-190,110,58,16,660,165,480,0.000000,0.000000,0.000000
16/06/2023,20:39:40.843,-944,47,-152,149,28,18,664,150,496,0.000000,0.000000,0.000000
16/06/2023,20:39:40.852,-951,17,-159,138,13,-22,664,150,496,0.000000,0.000000,0.000000
16/06/2023,20:39:40.861,-967,-27,-130,111,35,0,679,162,495,0.000000,0.000000,0.000000
16/06/2023,20:39:40.871,-1000,-41,-112,73,65,4,672,163,495,0.000000,0.000000,0.000000
16/06/2023,20:39:40.880,-1021,-66,-154,71,73,11,676,165,481,0.000000,0.000000,0.000000
16/06/2023,20:39:40.890,-1022,-81,-190,75,73,38,667,175,499,0.000000,0.000000,0.000000
16/06/2023,20:39:40.899,-1006,-60,-217,46,44,73,658,154,492,0.000000,0.000000,0.000000
16/06/2023,20:39:40.908,-957,-14,-236,-10,-5,90,667,165,495,0.000000,0.000000,0.000000
16/06/2023,20:39:40.918,-942,47,-222,-42,5,87,669,166,502,0.000000,0.000000,0.000000
16/06/2023,20:39:40.927,-959,87,-204,-46,20,92,672,166,499,0.000000,0.000000,0.000000
16/06/2023,20:39:40.936,-961,98,-207,-69,27,87,672,166,499,0.000000,0.000000,0.000000
16/06/2023,20:39:40.945,-970,67,-196,-135,-6,55,676,154,498,0.000000,0.000000,0.000000
16/06/2023,20:39:40.955,-963,22,-236,-135,-6,55,660,160,493,0.000000,0.000000,0.000000
16/06/2023,20:39:40.965,-950,21,-226,-298,-59,55,675,159,487,0.000000,0.000000,0.000000
16/06/2023,20:39:40.974,-931,41,-126,-392,-42,70,663,168,520,0.000000,0.000000,0.000000
16/06/2023,20:39:40.983,-928,37,-70,-305,33,68,676,157,490,0.000000,0.000000,0.000000
16/06/2023,20:39:40.993,-945,12,-73,-149,81,66,669,153,502,0.000000,0.000000,0.000000
16/06/2023,20:39:41.002,-949,-19,-100,-20,107,77,666,156,505,0.000000,0.000000,0.000000
16/06/2023,20:39:41.011,-939,-34,-111,28,145,95,664,153,502,0.000000,0.000000,0.000000
16/06/2023,20:39:41.021,-932,-11,-98,26,193,111,663,162,490,0.000000,0.000000,0.000000
16/06/2023,20:39:41.030,-932,-11,-98,0,218,109,663,162,490,0.000000,0.000000,0.000000
16/06/2023,20:39:41.039,-932,19,-76,-48,228,95,673,159,499,0.000000,0.000000,0.000000
16/06/2023,20:39:41.049,-936,42,-48,-83,212,83,693,151,495,0.000000,0.000000,0.000000
16/06/2023,20:39:41.058,-946,67,-37,-65,186,74,663,130,495,0.000000,0.000000,0.000000
16/06/2023,20:39:41.068,-959,98,-31,-33,179,72,660,147,489,0.000000,0.000000,0.000000
16/06/2023,20:39:41.080,-966,133,-15,-22,165,65,664,153,501,0.000000,0.000000,0.000000
16/06/2023,20:39:41.086,-961,140,-4,-24,139,54,652,154,514,0.000000,0.000000,0.000000
16/06/2023,20:39:41.096,-951,110,-12,-21,117,41,652,157,493,0.000000,0.000000,0.000000
16/06/2023,20:39:41.105,-940,67,-29,-1,86,38,661,147,499,0.000000,0.000000,0.000000
16/06/2023,20:39:41.114,-925,34,-64,70,92,55,646,147,510,0.000000,0.000000,0.000000
16/06/2023,20:39:41.123,-921,13,-84,240,138,92,646,147,510,0.000000,0.000000,0.000000
16/06/2023,20:39:41.133,-924,10,-89,408,173,136,660,148,523,0.000000,0.000000,0.000000
16/06/2023,20:39:41.143,-930,45,-75,550,203,154,660,148,511,0.000000,0.000000,0.000000
16/06/2023,20:39:41.152,-948,90,-22,582,160,124,657,163,495,0.000000,0.000000,0.000000
16/06/2023,20:39:41.161,-962,94,-27,508,87,68,631,159,513,0.000000,0.000000,0.000000
16/06/2023,20:39:41.171,-970,53,-146,410,87,35,654,151,517,0.000000,0.000000,0.000000
16/06/2023,20:39:41.180,-954,29,-242,261,108,29,658,144,498,0.000000,0.000000,0.000000
16/06/2023,20:39:41.189,-914,39,-268,67,92,8,637,162,526,0.000000,0.000000,0.000000
16/06/2023,20:39:41.199,-887,31,-291,-43,101,-6,669,154,519,0.000000,0.000000,0.000000
16/06/2023,20:39:41.208,-889,-6,-323,-4,166,2,655,165,501,0.000000,0.000000,0.000000
16/06/2023,20:39:41.217,-917,-48,-356,147,213,24,655,165,501,0.000000,0.000000,0.000000
16/06/2023,20:39:41.226,-960,-69,-348,257,200,39,661,165,504,0.000000,0.000000,0.000000
16/06/2023,20:39:41.236,-1015,-60,-308,275,154,49,658,172,507,0.000000,0.000000,0.000000
16/06/2023,20:39:41.246,-1053,-48,-270,257,133,58,642,148,517,0.000000,0.000000,0.000000
16/06/2023,20:39:41.255,-1088,-49,-232,251,152,67,645,154,526,0.000000,0.000000,0.000000
16/06/2023,20:39:41.264,-1153,-57,-174,273,103,67,646,168,507,0.000000,0.000000,0.000000
16/06/2023,20:39:41.274,-1266,-41,-61,262,176,47,652,150,507,0.000000,0.000000,0.000000
16/06/2023,20:39:41.283,-1327,-46,-15,226,242,26,649,147,531,0.000000,0.000000,0.000000
16/06/2023,20:39:41.292,-1332,-26,80,226,242,26,660,177,522,0.000000,0.000000,0.000000
16/06/2023,20:39:41.301,-1307,58,276,225,204,1,646,159,531,0.000000,0.000000,0.000000
16/06/2023,20:39:41.311,-1246,52,317,166,137,-24,646,159,531,0.000000,0.000000,0.000000
16/06/2023,20:39:41.320,-1199,-103,145,138,93,-73,633,162,523,0.000000,0.000000,0.000000
16/06/2023,20:39:41.330,-1186,-274,-13,280,98,-73,636,166,519,0.000000,0.000000,0.000000
16/06/2023,20:39:41.339,-1213,-305,4,420,105,-43,633,175,540,0.000000,0.000000,0.000000
16/06/2023,20:39:41.352,-1262,-253,83,340,92,-28,642,159,523,0.000000,0.000000,0.000000
16/06/2023,20:39:41.358,-1342,-225,96,71,70,-53,649,177,534,0.000000,0.000000,0.000000
16/06/2023,20:39:41.367,-1342,-190,82,-163,43,-72,633,166,541,0.000000,0.000000,0.000000
16/06/2023,20:39:41.377,-1392,-190,82,-267,-13,-66,649,174,517,0.000000,0.000000,0.000000
16/06/2023,20:39:41.386,-1362,-92,158,-323,-117,-69,634,177,523,0.000000,0.000000,0.000000
16/06/2023,20:39:41.396,-1302,44,273,-259,-236,-102,636,157,519,0.000000,0.000000,0.000000
16/06/2023,20:39:41.404,-1272,138,301,-107,-380,-146,636,157,519,0.000000,0.000000,0.000000
16/06/2023,20:39:41.414,-1266,151,245,-73,-563,-205,642,163,529,0.000000,0.000000,0.000000
16/06/2023,20:39:41.424,-1244,135,164,-117,-783,-273,654,156,517,0.000000,0.000000,0.000000
16/06/2023,20:39:41.433,-1199,98,49,-146,-989,-387,661,171,510,0.000000,0.000000,0.000000
16/06/2023,20:39:41.442,-1156,49,-37,-302,-1156,-428,652,165,492,0.000000,0.000000,0.000000
16/06/2023,20:39:41.452,-1087,104,-67,-485,-1237,-430,664,160,508,0.000000,0.000000,0.000000
16/06/2023,20:39:41.461,-1067,350,-53,-375,-1271,-438,669,163,486,0.000000,0.000000,0.000000
16/06/2023,20:39:41.470,-1094,483,-27,-90,-1367,-476,676,160,492,0.000000,0.000000,0.000000
16/06/2023,20:39:41.480,-1061,325,-162,78,-1262,-451,688,177,486,0.000000,0.000000,0.000000
16/06/2023,20:39:41.489,-1015,73,-412,381,-1081,-319,693,175,486,0.000000,0.000000,0.000000
16/06/2023,20:39:41.498,-1058,-50,-516,561,-872,-164,693,175,486,0.000000,0.000000,0.000000
16/06/2023,20:39:41.508,-1072,-45,-458,113,-773,-167,697,192,486,0.000000,0.000000,0.000000
16/06/2023,20:39:41.517,-1066,-193,-490,-643,-922,71,693,181,457,0.000000,0.000000,0.000000
16/06/2023,20:39:41.527,-1075,-376,-538,-1288,-1054,248,708,169,453,0.000000,0.000000,0.000000
16/06/2023,20:39:41.536,-1043,-306,-388,-1258,-1092,369,711,175,451,0.000000,0.000000,0.000000
16/06/2023,20:39:41.545,-1063,-158,-262,-1111,-1175,317,702,159,442,0.000000,0.000000,0.000000
16/06/2023,20:39:41.555,-1091,-104,-238,-1023,-1227,253,715,142,460,0.000000,0.000000,0.000000
16/06/2023,20:39:41.564,-1106,4,-183,-1008,-1252,199,711,159,432,0.000000,0.000000,0.000000
16/06/2023,20:39:41.574,-1124,100,-109,-1194,-1396,203,712,147,426,0.000000,0.000000,0.000000
16/06/2023,20:39:41.582,-1111,81,-117,-1306,-1379,230,712,147,426,0.000000,0.000000,0.000000
16/06/2023,20:39:41.592,-1038,59,-171,-1284,-1290,219,736,132,418,28.600000,48.299999,980.359985
16/06/2023,20:39:41.602,-949,50,-221,-1246,-1290,140,714,148,408,28.600000,48.299999,980.359985
16/06/2023,20:39:41.611,-873,29,-215,-1092,-1261,13,745,127,394,28.600000,48.299999,980.359985
16/06/2023,20:39:41.620,-820,23,-164,-996,-1241,-77,744,129,385,28.600000,48.299999,980.359985
16/06/2023,20:39:41.630,-794,51,-155,-960,-1175,-105,741,132,381,28.600000,48.299999,980.359985
16/06/2023,20:39:41.639,-770,60,-132,-908,-1090,-123,756,126,366,28.600000,48.299999,980.359985
16/06/2023,20:39:41.648,-745,56,-115,-908,-1090,-123,753,120,366,28.600000,48.299999,980.359985
16/06/2023,20:39:41.658,-706,28,-92,-899,-1021,-144,750,117,360,28.600000,48.299999,980.359985
16/06/2023,20:39:41.667,-709,45,-96,-902,-948,-127,750,117,360,28.600000,48.299999,980.359985
16/06/2023,20:39:41.676,-731,103,-110,-861,-887,-148,757,120,354,28.600000,48.299999,980.359985
16/06/2023,20:39:41.686,-712,93,-97,-819,-826,-170,757,115,340,28.600000,48.299999,980.359985
16/06/2023,20:39:41.695,-727,94,-87,-818,-809,-193,768,121,348,28.600000,48.299999,980.359985
16/06/2023,20:39:41.705,-697,119,-65,-802,-772,-181,765,118,334,28.600000,48.299999,980.359985
16/06/2023,20:39:41.714,-697,119,-65,-759,-756,-186,769,106,322,28.600000,48.299999,980.359985
16/06/2023,20:39:41.723,-663,166,-40,-657,-692,-171,769,114,315,28.600000,48.299999,980.359985
16/06/2023,20:39:41.733,-639,192,0,-583,-603,-111,760,108,324,28.600000,48.299999,980.359985
16/06/2023,20:39:41.742,-606,223,20,-503,-545,-53,757,105,316,28.600000,48.299999,980.359985
16/06/2023,20:39:41.752,-606,210,19,-434,-431,22,774,114,309,28.600000,48.299999,980.359985
16/06/2023,20:39:41.760,-630,147,32,-415,-292,90,774,114,309,28.600000,48.299999,980.359985
16/06/2023,20:39:41.770,-688,103,69,-386,-213,139,759,123,327,28.600000,48.299999,980.359985
16/06/2023,20:39:41.780,-687,79,83,-319,-125,199,768,105,303,28.600000,48.299999,980.359985
16/06/2023,20:39:41.789,-679,113,146,-239,-47,215,772,118,286,28.600000,48.299999,980.359985
16/06/2023,20:39:41.798,-699,125,220,-207,-37,230,768,111,306,28.600000,48.299999,980.359985
16/06/2023,20:39:41.811,-708,123,225,-195,-24,234,772,105,297,28.600000,48.299999,980.359985
16/06/2023,20:39:41.817,-714,137,234,-199,3,230,766,105,312,28.600000,48.299999,980.359985
16/06/2023,20:39:41.826,-750,163,280,-222,78,229,762,91,298,28.600000,48.299999,980.359985
16/06/2023,20:39:41.836,-822,184,350,-297,113,175,756,96,303,28.600000,48.299999,980.359985
16/06/2023,20:39:41.845,-894,177,401,-381,110,127,766,94,309,28.600000,48.299999,980.359985
16/06/2023,20:39:41.854,-965,166,437,-456,97,130,766,94,309,28.600000,48.299999,980.359985
16/06/2023,20:39:41.864,-1030,187,494,-491,113,107,768,102,313,28.600000,48.299999,980.359985
16/06/2023,20:39:41.873,-1116,204,591,-474,84,133,759,85,303,28.600000,48.299999,980.359985
16/06/2023,20:39:41.883,-1147,204,607,-388,33,179,772,94,318,28.600000,48.299999,980.359985
16/06/2023,20:39:41.892,-1305,202,735,-230,-41,171,757,82,315,28.600000,48.299999,980.359985
16/06/2023,20:39:41.901,-1499,244,879,-48,-136,113,763,90,315,28.600000,48.299999,980.359985
16/06/2023,20:39:41.914,-1419,318,817,76,-174,9,760,67,322,28.600000,48.299999,980.359985
16/06/2023,20:39:41.920,-1199,320,690,49,-105,-23,753,85,304,28.600000,48.299999,980.359985
16/06/2023,20:39:41.929,-952,312,516,-158,23,14,766,87,294,28.600000,48.299999,980.359985
16/06/2023,20:39:41.938,-759,330,295,-461,87,123,766,87,294,28.600000,48.299999,980.359985
16/06/2023,20:39:41.948,-739,397,62,-562,25,196,777,75,303,28.600000,48.299999,980.359985
16/06/2023,20:39:41.958,-1001,437,-166,-317,11,127,766,93,300,28.600000,48.299999,980.359985
16/06/2023,20:39:41.967,-1218,333,-354,145,301,34,760,70,312,28.600000,48.299999,980.359985
16/06/2023,20:39:41.976,-1276,256,-326,693,563,-25,760,70,312,28.600000,48.299999,980.359985
16/06/2023,20:39:41.986,-1364,321,-93,693,563,-25,775,81,306,28.600000,48.299999,980.359985
16/06/2023,20:39:41.995,-1388,385,147,1035,664,-130,774,87,313,28.600000,48.299999,980.359985
16/06/2023,20:39:42.005,-1357,406,244,1122,502,-218,771,82,334,28.600000,48.299999,980.359985
16/06/2023,20:39:42.017,-1221,392,173,1078,288,-174,762,85,340,28.600000,48.299999,980.359985
16/06/2023,20:39:42.023,-937,258,9,793,386,-89,762,85,340,28.600000,48.299999,980.359985
16/06/2023,20:39:42.032,-611,-3,-266,532,626,-3,769,97,316,28.600000,48.299999,980.359985
16/06/2023,20:39:42.042,-354,-263,-609,602,784,45,756,94,336,28.600000,48.299999,980.359985
16/06/2023,20:39:42.051,-328,-371,-737,1277,938,77,763,93,349,28.600000,48.299999,980.359985
16/06/2023,20:39:42.061,-328,-371,-737,1859,988,18,760,102,357,28.600000,48.299999,980.359985
16/06/2023,20:39:42.070,-433,-191,-601,2222,1078,-183,762,99,357,28.600000,48.299999,980.359985
16/06/2023,20:39:42.079,-613,19,-238,2562,1190,-294,744,106,372,28.600000,48.299999,980.359985
16/06/2023,20:39:42.089,-877,-10,-51,2605,1469,-289,745,96,384,28.600000,48.299999,980.359985
16/06/2023,20:39:42.098,-1121,-153,-198,2385,1707,-256,753,108,408,28.600000,48.299999,980.359985
16/06/2023,20:39:42.108,-1224,-212,-280,1898,1619,-267,751,126,406,28.600000,48.299999,980.359985
16/06/2023,20:39:42.116,-1144,-209,-228,1588,1583,-226,751,126,406,28.600000,48.299999,980.359985
16/06/2023,20:39:42.126,-1034,-238,-123,1380,1598,-90,753,148,403,28.600000,48.299999,980.359985
16/06/2023,20:39:42.136,-1001,-178,-63,1123,1475,3,727,127,406,28.600000,48.299999,980.359985
16/06/2023,20:39:42.145,-966,-32,-77,940,1357,81,720,159,415,28.600000,48.299999,980.359985
16/06/2023,20:39:42.154,-850,76,-61,885,1304,126,718,157,435,28.600000,48.299999,980.359985
16/06/2023,20:39:42.164,-860,122,-71,830,1177,166,718,148,456,28.600000,48.299999,980.359985
16/06/2023,20:39:42.173,-963,90,-139,748,1126,70,705,166,465,28.600000,48.299999,980.359985
16/06/2023,20:39:42.183,-1003,7,-135,637,1056,-15,727,141,469,28.600000,48.299999,980.359985
16/06/2023,20:39:42.192,-1002,-43,-158,493,878,28,705,151,472,28.600000,48.299999,980.359985
16/06/2023,20:39:42.201,-970,-106,-201,444,651,9,708,159,469,28.600000,48.299999,980.359985
16/06/2023,20:39:42.210,-975,-218,-204,226,783,-19,708,159,469,28.600000,48.299999,980.359985
16/06/2023,20:39:42.219,-1016,-276,-147,-135,700,-2,705,154,478,28.600000,48.299999,980.359985
16/06/2023,20:39:42.229,-1047,-225,-51,-387,525,28,690,162,484,28.600000,48.299999,980.359985
16/06/2023,20:39:42.239,-1064,-142,9,-479,369,62,703,141,496,28.600000,48.299999,980.359985
16/06/2023,20:39:42.248,-991,9,24,-428,331,98,696,139,501,28.600000,48.299999,980.359985
16/06/2023,20:39:42.257,-896,181,23,-78,356,134,693,150,498,28.600000,48.299999,980.359985
16/06/2023,20:39:42.267,-863,207,-9,284,382,98,699,147,493,28.600000,48.299999,980.359985
16/06/2023,20:39:42.276,-856,141,-97,484,448,102,681,133,495,28.600000,48.299999,980.359985
16/06/2023,20:39:42.286,-893,27,-149,489,481,80,688,139,487,28.600000,48.299999,980.359985
16/06/2023,20:39:42.295,-915,-105,-154,325,442,59,696,148,529,28.600000,48.299999,980.359985
16/06/2023,20:39:42.304,-903,-113,-170,166,418,97,696,148,529,28.600000,48.299999,980.359985
16/06/2023,20:39:42.313,-872,11,-169,225,430,111,663,160,513,28.600000,48.299999,980.359985
16/06/2023,20:39:42.323,-892,56,-111,403,455,114,663,157,540,28.600000,48.299999,980.359985
16/06/2023,20:39:42.332,-906,31,-120,403,455,114,663,157,540,28.600000,48.299999,980.359985
16/06/2023,20:39:42.342,-903,84,-199,509,373,74,676,142,520,28.600000,48.299999,980.359985
16/06/2023,20:39:42.351,-930,143,-220,519,426,91,654,142,522,28.600000,48.299999,980.359985
16/06/2023,20:39:42.361,-937,183,-213,400,475,77,655,162,514,28.600000,48.299999,980.359985
16/06/2023,20:39:42.370,-936,185,-196,202,500,39,669,154,525,28.600000,48.299999,980.359985
16/06/2023,20:39:42.379,-983,178,-203,48,462,-60,661,154,522,28.600000,48.299999,980.359985
16/06/2023,20:39:42.389,-1053,161,-209,-24,504,-67,651,172,516,28.600000,48.299999,980.359985
16/06/2023,20:39:42.397,-1053,161,-209,48,562,-79,651,172,516,28.600000,48.299999,980.359985
16/06/2023,20:39:42.407,-1125,104,-184,162,528,-93,649,162,538,28.600000,48.299999,980.359985
16/06/2023,20:39:42.417,-1192,32,-139,205,525,-104,667,166,525,28.600000,48.299999,980.359985
16/06/2023,20:39:42.426,-1204,-8,-32,151,394,-72,663,147,544,28.600000,48.299999,980.359985
16/06/2023,20:39:42.435,-1185,0,62,186,244,-45,663,165,529,28.600000,48.299999,980.359985
16/06/2023,20:39:42.445,-1179,-37,31,343,98,-33,660,157,543,28.600000,48.299999,980.359985
16/06/2023,20:39:42.454,-1222,-122,6,364,-52,-5,669,171,538,28.600000,48.299999,980.359985
16/06/2023,20:39:42.464,-1264,-173,68,219,-203,12,639,162,535,28.600000,48.299999,980.359985
16/06/2023,20:39:42.473,-1275,-173,119,84,-277,27,661,156,538,28.600000,48.299999,980.359985
16/06/2023,20:39:42.482,-1269,-140,169,16,-310,42,666,150,532,28.600000,48.299999,980.359985
16/06/2023,20:39:42.491,-1255,-104,227,-2,-340,57,666,150,532,28.600000,48.299999,980.359985
16/06/2023,20:39:42.500,-1244,-63,310,18,-324,60,654,144,540,28.600000,48.299999,980.359985
16/06/2023,20:39:42.510,-1235,-30,451,-1,-352,25,654,154,541,28.600000,48.299999,980.359985
16/06/2023,20:39:42.520,-1339,-9,446,-51,-432,-22,655,163,522,28.600000,48.299999,980.359985
16/06/2023,20:39:42.529,-1488,-67,274,143,-506,-10,664,175,549,28.600000,48.299999,980.359985
16/06/2023,20:39:42.539,-1539,-106,280,294,-642,-32,666,174,517,28.600000,48.299999,980.359985
16/06/2023,20:39:42.548,-1540,33,442,190,-943,-110,681,171,519,28.600000,48.299999,980.359985
16/06/2023,20:39:42.557,-1479,171,404,-140,-1338,-320,685,172,495,28.600000,48.299999,980.359985
16/06/2023,20:39:42.567,-1412,52,129,-700,-1540,-416,688,171,486,28.600000,48.299999,980.359985
16/06/2023,20:39:42.576,-1387,-187,-137,-1089,-1673,-448,690,163,498,28.600000,48.299999,980.359985
16/06/2023,20:39:42.585,-1273,-371,-504,-956,-1579,-372,690,163,498,28.600000,48.299999,980.359985
16/06/2023,20:39:42.594,-1171,-287,-768,-811,-1424,-225,687,150,466,28.600000,48.299999,980.359985
16/06/2023,20:39:42.604,-1226,119,-667,-722,-1426,-182,687,154,465,28.600000,48.299999,980.359985
16/06/2023,20:39:42.613,-1259,299,-627,-335,-1287,-26,703,154,468,28.600000,48.299999,980.359985
16/06/2023,20:39:42.623,-1288,233,-622,290,-1159,58,691,159,442,28.600000,48.299999,980.359985
16/06/2023,20:39:42.632,-1308,159,-538,837,-1208,66,711,159,430,28.600000,48.599998,980.299988
16/06/2023,20:39:42.642,-1284,157,-584,942,-907,180,708,160,430,28.600000,48.599998,980.299988
16/06/2023,20:39:42.651,-1291,175,-530,17,-556,388,723,150,438,28.600000,48.599998,980.299988
16/06/2023,20:39:42.660,-1328,76,-265,17,-556,388,720,133,433,28.600000,48.599998,980.299988
16/06/2023,20:39:42.669,-1277,35,-118,-2113,-1371,602,720,133,433,28.600000,48.599998,980.299988
16/06/2023,20:39:42.678,-1103,63,-155,-2113,-1371,602,729,139,420,28.600000,48.599998,980.299988
16/06/2023,20:39:42.688,-955,53,-156,-1918,-1454,574,717,132,411,28.600000,48.599998,980.299988
16/06/2023,20:39:42.698,-852,90,-132,-1535,-1385,394,733,127,390,28.600000,48.599998,980.299988
16/06/2023,20:39:42.707,-807,185,-172,-1362,-1395,242,735,112,391,28.600000,48.599998,980.299988
16/06/2023,20:39:42.717,-826,180,-195,-1327,-1393,177,760,108,379,28.600000,48.599998,980.299988
16/06/2023,20:39:42.726,-807,93,-205,-1302,-1386,99,738,102,372,28.600000,48.599998,980.299988
16/06/2023,20:39:42.735,-754,-4,-191,-1277,-1336,85,742,102,366,28.600000,48.599998,980.299988
16/06/2023,20:39:42.745,-660,-34,-206,-1200,-1171,145,753,103,361,28.600000,48.599998,980.299988
16/06/2023,20:39:42.754,-660,-34,-206,-1232,-1045,90,766,96,331,28.600000,48.599998,980.299988
16/06/2023,20:39:42.763,-600,-41,-222,-1178,-1012,-25,766,96,331,28.600000,48.599998,980.299988
16/06/2023,20:39:42.775,-641,-34,-170,-1125,-962,-90,744,99,321,28.600000,48.599998,980.299988
16/06/2023,20:39:42.782,-635,-11,-133,-867,-945,-211,765,94,318,28.600000,48.599998,980.299988
16/06/2023,20:39:42.791,-592,-59,-118,-758,-828,-221,757,94,318,28.600000,48.599998,980.299988
16/06/2023,20:39:42.801,-619,-87,-171,-895,-712,-290,750,96,312,28.600000,48.599998,980.299988
16/06/2023,20:39:42.810,-619,-61,-171,-975,-645,-199,759,67,319,28.600000,48.599998,980.299988
16/06/2023,20:39:42.820,-607,3,-117,-1037,-602,-114,757,94,307,28.600000,48.599998,980.299988
16/06/2023,20:39:42.829,-626,59,-95,-1048,-566,-50,759,88,313,28.600000,48.599998,980.299988
16/06/2023,20:39:42.838,-619,101,-66,-1000,-522,15,762,93,304,28.600000,48.599998,980.299988
16/06/2023,20:39:42.848,-613,132,-25,-866,-462,78,766,81,297,28.600000,48.599998,980.299988
16/06/2023,20:39:42.856,-609,172,20,-676,-380,177,766,81,297,28.600000,48.599998,980.299988
16/06/2023,20:39:42.866,-645,181,67,-493,-312,289,744,79,286,28.600000,48.599998,980.299988
16/06/2023,20:39:42.876,-684,148,128,-352,-288,353,739,90,292,28.600000,48.599998,980.299988
16/06/2023,20:39:42.885,-686,98,168,-281,-297,403,757,97,270,28.600000,48.599998,980.299988
16/06/2023,20:39:42.895,-668,49,140,-292,-265,439,760,82,289,28.600000,48.599998,980.299988
16/06/2023,20:39:42.904,-629,30,132,-262,-145,400,769,67,273,28.600000,48.599998,980.299988
16/06/2023,20:39:42.913,-624,54,175,-231,0,369,754,75,271,28.600000,48.599998,980.299988
16/06/2023,20:39:42.923,-650,126,207,-153,171,321,744,78,271,28.600000,48.599998,980.299988
16/06/2023,20:39:42.932,-718,173,267,-103,290,274,748,60,307,28.600000,48.599998,980.299988
16/06/2023,20:39:42.941,-831,178,342,-141,350,223,750,70,282,28.600000,48.599998,980.299988
16/06/2023,20:39:42.950,-909,186,420,-204,379,185,750,70,282,28.600000,48.599998,980.299988
16/06/2023,20:39:42.960,-978,193,487,-298,354,172,753,64,277,28.600000,48.599998,980.299988
16/06/2023,20:39:42.969,-1107,215,570,-375,351,192,753,60,279,28.600000,48.599998,980.299988
16/06/2023,20:39:42.979,-1259,188,679,-454,195,159,754,60,295,28.600000,48.599998,980.299988
16/06/2023,20:39:42.988,-1099,112,693,-443,25,159,763,49,286,28.600000,48.599998,980.299988
16/06/2023,20:39:42.998,-1320,189,811,-249,-118,145,751,72,288,28.600000,48.599998,980.299988
16/06/2023,20:39:43.007,-1743,301,950,-249,-118,145,756,37,291,28.600000,48.599998,980.299988
16/06/2023,20:39:43.016,-1616,337,892,-50,-256,29,756,57,289,28.600000,48.599998,980.299988
16/06/2023,20:39:43.025,-1321,392,789,91,-308,-18,756,57,289,28.600000,48.599998,980.299988
16/06/2023,20:39:43.035,-1006,381,594,0,-284,-17,739,51,297,28.600000,48.599998,980.299988
16/06/2023,20:39:43.044,-765,343,283,-360,-267,3,765,49,279,28.600000,48.599998,980.299988
16/06/2023,20:39:43.054,-660,390,-5,-763,-196,61,735,49,294,28.600000,48.599998,980.299988
16/06/2023,20:39:43.063,-873,427,-244,-875,-126,91,757,61,277,28.600000,48.599998,980.299988
16/06/2023,20:39:43.073,-1147,257,-403,-526,-75,17,745,55,289,28.600000,48.599998,980.299988
16/06/2023,20:39:43.082,-1137,99,-480,55,202,-44,750,36,288,28.600000,48.599998,980.299988
16/06/2023,20:39:43.091,-1168,120,-202,658,456,-26,754,51,277,28.600000,48.599998,980.299988
16/06/2023,20:39:43.101,-1168,120,-202,1098,693,-66,748,39,292,28.600000,48.599998,980.299988
16/06/2023,20:39:43.109,-1229,193,212,1189,664,-152,748,39,292,28.600000,48.599998,980.299988
16/06/2023,20:39:43.119,-1072,267,179,1192,548,-158,744,51,292,28.600000,48.599998,980.299988
16/06/2023,20:39:43.129,-950,398,-47,1260,659,-175,735,60,301,28.600000,48.599998,980.299988
16/06/2023,20:39:43.138,-854,512,-158,1226,869,-147,735,67,328,28.600000,48.599998,980.299988
16/06/2023,20:39:43.148,-724,395,-138,1041,854,-109,745,67,328,28.600000,48.599998,980.299988
16/06/2023,20:39:43.157,-662,84,-224,1118,756,-124,757,58,318,28.600000,48.599998,980.299988
16/06/2023,20:39:43.166,-707,-197,-442,1645,705,-106,741,66,316,28.600000,48.599998,980.299988
16/06/2023,20:39:43.176,-798,-344,-507,2268,1041,-173,745,67,348,28.600000,48.599998,980.299988
16/06/2023,20:39:43.185,-828,-473,-355,2610,1500,-230,742,85,358,28.600000,48.599998,980.299988
16/06/2023,20:39:43.194,-947,-542,-176,2679,1807,-228,729,84,367,28.600000,48.599998,980.299988
16/06/2023,20:39:43.203,-1153,-483,-118,2458,1843,-193,729,84,367,28.600000,48.599998,980.299988
16/06/2023,20:39:43.212,-1187,-378,-108,2046,1684,-174,711,85,379,28.600000,48.599998,980.299988
16/06/2023,20:39:43.222,-1083,-233,-55,1728,1507,-175,727,94,412,28.600000,48.599998,980.299988
16/06/2023,20:39:43.232,-963,-85,-31,1547,1412,-178,726,108,415,28.600000,48.599998,980.299988
16/06/2023,20:39:43.241,-860,37,-45,1401,1423,-181,697,99,424,28.600000,48.599998,980.299988
16/06/2023,20:39:43.251,-815,121,-73,1163,1418,-80,697,93,429,28.600000,48.599998,980.299988
16/06/2023,20:39:43.260,-848,123,-115,910,1334,-16,696,108,447,28.600000,48.599998,980.299988
16/06/2023,20:39:43.269,-902,96,-153,699,1176,-18,693,108,436,28.600000,48.599998,980.299988
16/06/2023,20:39:43.279,-909,75,-214,515,1102,-77,684,123,468,28.600000,48.599998,980.299988
16/06/2023,20:39:43.288,-902,20,-218,434,1071,-94,679,112,475,28.600000,48.599998,980.299988
16/06/2023,20:39:43.297,-920,-48,-220,324,1006,-116,679,112,475,28.600000,48.599998,980.299988
16/06/2023,20:39:43.306,-910,-142,-213,179,897,-117,691,121,478,28.600000,48.599998,980.299988
16/06/2023,20:39:43.316,-980,-300,-228,-1,831,-103,675,126,460,28.600000,48.599998,980.299988
16/06/2023,20:39:43.326,-1070,-351,-217,-364,680,-72,676,118,481,28.600000,48.599998,980.299988
16/06/2023,20:39:43.335,-1055,-206,-56,-597,515,12,673,129,514,28.600000,48.599998,980.299988
16/06/2023,20:39:43.344,-1021,-32,45,-696,509,55,682,133,514,28.600000,48.599998,980.299988
16/06/2023,20:39:43.354,-922,132,61,-537,561,126,663,96,489,28.600000,48.599998,980.299988
16/06/2023,20:39:43.363,-873,176,51,-52,627,117,658,115,505,28.600000,48.599998,980.299988
16/06/2023,20:39:43.372,-911,117,0,-52,627,117,648,124,499,28.600000,48.599998,980.299988
16/06/2023,20:39:43.382,-915,66,-65,418,608,104,651,109,498,28.600000,48.599998,980.299988
16/06/2023,20:39:43.409,-901,48,-101,604,588,169,661,129,519,28.600000,48.599998,980.299988
16/06/2023,20:39:43.419,-916,121,-30,344,552,116,648,142,492,28.600000,48.599998,980.299988
16/06/2023,20:39:43.429,-916,143,21,122,493,41,643,136,529,28.600000,48.599998,980.299988
16/06/2023,20:39:43.438,-907,97,7,73,447,-14,661,127,531,28.600000,48.599998,980.299988
16/06/2023,20:39:43.447,-907,97,7,184,438,-39,657,142,523,28.600000,48.599998,980.299988
16/06/2023,20:39:43.457,-896,26,-72,363,450,-34,628,123,531,28.600000,48.599998,980.299988
16/06/2023,20:39:43.466,-894,-12,-127,479,470,-19,636,120,535,28.600000,48.599998,980.299988
16/06/2023,20:39:43.475,-903,-14,-132,475,464,-11,625,141,522,28.600000,48.599998,980.299988
16/06/2023,20:39:43.485,-893,-21,-137,405,399,-23,642,130,531,28.600000,48.599998,980.299988
16/06/2023,20:39:43.494,-883,-49,-168,314,398,-16,642,130,531,28.600000,48.599998,980.299988
16/06/2023,20:39:43.503,-916,-66,-240,216,400,-11,633,135,523,28.600000,48.599998,980.299988
16/06/2023,20:39:43.513,-983,-48,-267,216,441,25,618,135,556,28.600000,48.599998,980.299988
16/06/2023,20:39:43.522,-1131,-9,-200,298,444,18,618,135,556,28.600000,48.599998,980.299988
16/06/2023,20:39:43.532,-1206,-4,-179,276,336,33,616,127,529,28.600000,48.599998,980.299988
16/06/2023,20:39:43.541,-1229,22,-156,67,281,15,630,141,559,28.600000,48.599998,980.299988
16/06/2023,20:39:43.550,-1294,172,-107,-155,128,-5,616,147,555,28.600000,48.599998,980.299988
16/06/2023,20:39:43.560,-1267,284,-45,-215,81,-36,603,147,540,28.600000,48.599998,980.299988
16/06/2023,20:39:43.569,-1239,188,-7,-132,-19,-75,621,138,553,28.600000,48.599998,980.299988
16/06/2023,20:39:43.578,-1270,-19,-50,47,-134,-109,621,138,553,28.600000,48.599998,980.299988
16/06/2023,20:39:43.587,-1318,-182,3,159,-248,-109,621,133,523,28.600000,48.599998,980.299988
16/06/2023,20:39:43.597,-1327,-231,144,151,-309,-77,610,141,537,28.600000,48.599998,980.299988
16/06/2023,20:39:43.607,-1312,-201,267,120,-325,-38,627,138,534,28.600000,48.599998,980.299988
16/06/2023,20:39:43.616,-1300,-155,378,99,-369,-22,624,126,544,28.600000,48.599998,980.299988
16/06/2023,20:39:43.625,-1344,-131,421,12,-453,-48,633,145,528,28.600000,48.599998,980.299988
16/06/2023,20:39:43.635,-1518,-222,298,73,-446,-37,622,139,526,28.600000,48.599998,980.299988
16/06/2023,20:39:43.644,-1642,-362,217,129,-566,-3,642,130,537,28.600000,48.599998,980.299988
16/06/2023,20:39:43.653,-1583,-302,283,-14,-747,-2,625,135,541,28.600000,48.599998,980.299988
16/06/2023,20:39:43.663,-1503,-36,325,-86,-1071,-87,640,135,540,28.600000,48.599998,980.299988
16/06/2023,20:39:43.672,-1462,209,255,-253,-1440,-238,640,135,540,28.600000,48.599998,980.299988
16/06/2023,20:39:43.682,-1339,319,128,-819,-1499,-350,666,145,496,28.600000,48.700001,980.419983
16/06/2023,20:39:43.691,-1180,193,-103,-1025,-1596,-432,666,145,496,28.600000,48.700001,980.419983
16/06/2023,20:39:43.700,-1017,-91,-395,-908,-1470,-414,649,145,505,28.600000,48.700001,980.419983
16/06/2023,20:39:43.710,-963,-277,-561,-851,-1382,-361,651,141,492,28.600000,48.700001,980.419983
16/06/2023,20:39:43.719,-1088,-186,-664,-851,-1382,-361,688,129,478,28.600000,48.700001,980.419983
16/06/2023,20:39:43.728,-1178,-94,-751,-581,-1416,-301,688,138,469,28.600000,48.700001,980.419983
16/06/2023,20:39:43.738,-1278,-68,-684,-113,-1239,-114,681,138,457,28.600000,48.700001,980.419983
16/06/2023,20:39:43.747,-1311,35,-557,217,-1113,0,687,157,451,28.600000,48.700001,980.419983
16/06/2023,20:39:43.759,-1269,93,-538,172,-1104,62,687,157,451,28.600000,48.700001,980.419983
16/06/2023,20:39:43.766,-1322,31,-501,-370,-875,91,694,141,457,28.600000,48.700001,980.419983
16/06/2023,20:39:43.775,-1368,-85,-284,-1180,-770,314,688,124,448,28.600000,48.700001,980.419983
16/06/2023,20:39:43.785,-1368,-20,-284,-1906,-932,486,699,118,441,28.600000,48.700001,980.419983
16/06/2023,20:39:43.794,-1291,-20,-137,-2202,-1286,488,697,114,424,28.600000,48.700001,980.419983
16/06/2023,20:39:43.803,-1113,116,-207,-2059,-1345,360,681,93,424,28.600000,48.700001,980.419983
16/06/2023,20:39:43.813,-970,163,-249,-1746,-1343,222,694,106,411,28.600000,48.700001,980.419983
16/06/2023,20:39:43.822,-909,220,-245,-1578,-1316,215,715,91,406,28.600000,48.700001,980.419983
16/06/2023,20:39:43.831,-867,285,-214,-1391,-1267,204,717,84,403,28.600000,48.700001,980.419983
16/06/2023,20:39:43.840,-935,235,-203,-1365,-1221,198,717,84,403,28.600000,48.700001,980.419983
16/06/2023,20:39:43.850,-881,72,-209,-1412,-1270,108,723,85,375,28.600000,48.700001,980.419983
16/06/2023,20:39:43.860,-741,-8,-219,-1368,-1309,23,712,75,379,28.600000,48.700001,980.419983
16/06/2023,20:39:43.869,-727,-6,-205,-1185,-1245,-64,723,64,357,28.600000,48.700001,980.419983
16/06/2023,20:39:43.878,-708,-17,-154,-1114,-1164,-50,715,85,342,28.600000,48.700001,980.419983
16/06/2023,20:39:43.888,-671,-41,-162,-1107,-1054,-137,730,85,346,28.600000,48.700001,980.419983
16/06/2023,20:39:43.897,-613,-84,-180,-1064,-956,-230,720,57,339,28.600000,48.700001,980.419983
16/06/2023,20:39:43.906,-589,-89,-168,-1005,-894,-266,729,79,337,28.600000,48.700001,980.419983
16/06/2023,20:39:43.916,-610,-37,-160,-976,-852,-224,721,88,321,28.600000,48.700001,980.419983
16/06/2023,20:39:43.925,-638,6,-157,-994,-789,-195,721,88,321,28.600000,48.700001,980.419983
16/06/2023,20:39:43.934,-601,47,-192,-1068,-775,-147,742,82,306,28.600000,48.700001,980.419983
16/06/2023,20:39:43.944,-567,137,-177,-967,-637,-97,738,70,306,28.600000,48.700001,980.419983
16/06/2023,20:39:43.953,-553,232,-93,-800,-500,-51,732,57,313,28.600000,48.700001,980.419983
16/06/2023,20:39:43.963,-538,270,-36,-639,-416,-2,741,67,304,28.600000,48.700001,980.419983
16/06/2023,20:39:43.972,-551,254,5,-474,-355,75,720,63,294,28.600000,48.700001,980.419983
16/06/2023,20:39:43.981,-562,226,37,-313,-349,113,744,63,277,28.600000,48.700001,980.419983
16/06/2023,20:39:43.991,-581,195,81,-156,-240,155,759,85,292,28.600000,48.700001,980.419983
16/06/2023,20:39:44.000,-650,151,127,-61,-178,198,736,70,291,28.600000,48.700001,980.419983
16/06/2023,20:39:44.009,-712,89,162,-45,-164,252,729,60,280,28.600000,48.700001,980.419983
16/06/2023,20:39:44.018,-716,78,190,-37,-133,275,729,60,280,28.600000,48.700001,980.419983
16/06/2023,20:39:44.028,-702,119,213,-2,-71,265,738,66,285,28.600000,48.700001,980.419983
16/06/2023,20:39:44.038,-718,151,251,0,8,245,739,52,301,28.600000,48.700001,980.419983
16/06/2023,20:39:44.047,-766,168,314,-45,104,211,741,51,294,28.600000,48.700001,980.419983
16/06/2023,20:39:44.056,-834,152,412,-45,104,211,738,63,291,28.600000,48.700001,980.419983
16/06/2023,20:39:44.066,-931,125,503,-171,150,168,723,48,295,28.600000,48.700001,980.419983
16/06/2023,20:39:44.075,-1028,127,594,-347,128,138,730,51,292,28.600000,48.700001,980.419983
16/06/2023,20:39:44.084,-1082,109,650,-490,16,168,729,57,270,28.600000,48.700001,980.419983
16/06/2023,20:39:44.094,-1239,77,766,-533,-115,165,742,40,286,28.600000,48.700001,980.419983
16/06/2023,20:39:44.103,-1466,62,936,-462,-196,258,727,51,277,28.600000,48.700001,980.419983
16/06/2023,20:39:44.112,-1466,62,936,-302,-332,197,727,51,277,28.600000,48.700001,980.419983
16/06/2023,20:39:44.121,-1546,100,1008,-80,-370,113,714,46,285,28.600000,48.700001,980.419983
16/06/2023,20:39:44.131,-1428,150,1006,12,-370,-6,736,51,268,28.600000,48.700001,980.419983
16/06/2023,20:39:44.141,-1150,181,873,-88,-312,-62,726,48,270,28.600000,48.700001,980.419983
16/06/2023,20:39:44.150,-882,255,635,-366,-191,-19,717,31,274,28.600000,48.700001,980.419983
16/06/2023,20:39:44.159,-698,342,311,-705,-69,63,729,43,276,28.600000,48.700001,980.419983
16/06/2023,20:39:44.169,-869,498,93,-770,-102,64,726,46,280,28.600000,48.700001,980.419983
16/06/2023,20:39:44.178,-1312,549,-87,-570,66,-42,732,45,271,28.600000,48.700001,980.419983
16/06/2023,20:39:44.187,-1572,381,-192,-140,320,-98,724,46,259,28.600000,48.700001,980.419983
16/06/2023,20:39:44.197,-1576,182,-149,493,433,-56,726,40,280,28.600000,48.700001,980.419983
16/06/2023,20:39:44.206,-1461,234,105,813,514,-52,726,40,280,28.600000,48.700001,980.419983
16/06/2023,20:39:44.216,-1314,475,309,814,343,-128,732,31,295,28.600000,48.700001,980.419983
16/06/2023,20:39:44.225,-1103,499,-35,1085,238,-95,714,27,304,28.600000,48.700001,980.419983
16/06/2023,20:39:44.234,-782,441,-339,1131,523,66,732,42,288,28.600000,48.700001,980.419983
16/06/2023,20:39:44.244,-479,403,-244,725,847,163,717,48,310,28.600000,48.700001,980.419983
16/06/2023,20:39:44.253,-330,192,-273,821,907,121,738,45,295,28.600000,48.700001,980.419983
16/06/2023,20:39:44.262,-335,-207,-511,1612,894,120,727,60,343,28.600000,48.700001,980.419983
16/06/2023,20:39:44.272,-577,-432,-637,2299,1027,126,700,48,340,28.600000,48.700001,980.419983
16/06/2023,20:39:44.281,-841,-339,-471,2460,1392,-9,729,55,327,28.600000,48.700001,980.419983
16/06/2023,20:39:44.290,-960,-144,-233,2644,1714,-235,729,55,327,28.600000,48.700001,980.419983
16/06/2023,20:39:44.299,-1054,-46,-241,2826,1989,-402,726,55,339,28.600000,48.700001,980.419983
16/06/2023,20:39:44.309,-1143,-150,-183,2859,2034,-466,724,48,363,28.600000,48.700001,980.419983
16/06/2023,20:39:44.319,-1148,-194,-110,2246,1807,-384,706,66,379,28.600000,48.700001,980.419983
16/06/2023,20:39:44.328,-1055,-119,-177,1676,1609,-213,700,69,391,28.600000,48.700001,980.419983
16/06/2023,20:39:44.337,-970,-63,-145,1352,1633,-47,694,96,387,28.600000,48.700001,980.419983
16/06/2023,20:39:44.347,-934,-57,-41,1159,1609,57,687,94,409,28.600000,48.700001,980.419983
16/06/2023,20:39:44.356,-899,-58,-11,1062,1473,110,687,87,420,28.600000,48.700001,980.419983
16/06/2023,20:39:44.365,-879,21,-45,1024,1313,36,682,99,427,28.600000,48.700001,980.419983
16/06/2023,20:39:44.375,-904,57,-101,926,1279,-20,663,94,456,28.600000,48.700001,980.419983
16/06/2023,20:39:44.384,-951,-24,-138,700,1262,-69,663,94,456,28.600000,48.700001,980.419983
16/06/2023,20:39:44.393,-916,-140,-122,382,1109,-84,679,123,460,28.600000,48.700001,980.419983
16/06/2023,20:39:44.403,-949,-224,-117,382,1109,-84,652,114,475,28.600000,48.700001,980.419983
16/06/2023,20:39:44.412,-1014,-273,-113,-8,803,-187,664,103,478,28.600000,48.700001,980.419983
16/06/2023,20:39:44.422,-973,-303,-61,-125,624,-224,660,127,462,28.600000,48.700001,980.419983
16/06/2023,20:39:44.431,-961,-265,-2,-75,719,-131,639,108,499,28.600000,48.700001,980.419983
16/06/2023,20:39:44.440,-990,-170,41,-12,739,-1,646,114,475,28.600000,48.700001,980.419983
16/06/2023,20:39:44.450,-991,-31,64,-6,656,63,660,111,492,28.600000,48.700001,980.419983
16/06/2023,20:39:44.459,-948,89,79,-64,485,73,655,100,492,28.600000,48.700001,980.419983
16/06/2023,20:39:44.469,-897,105,25,50,402,96,633,123,505,28.600000,48.700001,980.419983
16/06/2023,20:39:44.477,-897,105,25,411,467,120,633,123,505,28.600000,48.700001,980.419983
16/06/2023,20:39:44.487,-845,52,-70,780,646,146,634,120,490,28.600000,48.700001,980.419983
16/06/2023,20:39:44.497,-834,-36,-106,926,712,158,634,106,501,28.600000,48.700001,980.419983
16/06/2023,20:39:44.506,-864,-95,-105,860,660,151,631,114,502,28.600000,48.700001,980.419983
16/06/2023,20:39:44.515,-895,-80,-76,628,586,135,636,130,511,28.600000,48.700001,980.419983
16/06/2023,20:39:44.525,-900,-32,-33,423,508,95,624,108,516,28.600000,48.700001,980.419983
16/06/2023,20:39:44.534,-899,-15,-13,365,499,82,615,123,507,28.600000,48.700001,980.419983
16/06/2023,20:39:44.543,-881,-25,-43,427,523,62,621,132,513,28.600000,48.700001,980.419983
16/06/2023,20:39:44.553,-860,-28,-110,516,555,37,604,127,516,28.600000,48.700001,980.419983
16/06/2023,20:39:44.562,-879,-35,-175,508,546,10,609,130,528,28.600000,48.700001,980.419983
16/06/2023,20:39:44.571,-913,-40,-230,359,520,-16,609,130,528,28.600000,48.700001,980.419983
16/06/2023,20:39:44.580,-997,-23,-236,107,567,-44,603,120,525,28.600000,48.700001,980.419983
16/06/2023,20:39:44.590,-1062,34,-195,-74,499,-69,604,138,535,28.600000,48.700001,980.419983
16/06/2023,20:39:44.600,-1058,79,-164,-116,450,-72,606,121,519,28.600000,48.700001,980.419983
16/06/2023,20:39:44.609,-1143,53,-125,-63,515,-48,589,142,519,28.600000,48.700001,980.419983
16/06/2023,20:39:44.618,-1252,2,-91,-1,471,-24,582,117,541,28.600000,48.700001,980.419983
16/06/2023,20:39:44.628,-1224,39,-77,53,392,-37,585,133,540,28.600000,48.700001,980.419983
16/06/2023,20:39:44.637,-1209,30,-96,222,246,-46,582,129,540,28.600000,48.700001,980.419983
16/06/2023,20:39:44.647,-1255,-94,-115,151,55,-6,580,129,520,28.600000,48.700001,980.419983
16/06/2023,20:39:44.656,-1285,-120,-11,-121,-134,-3,594,127,529,28.600000,48.700001,980.419983
16/06/2023,20:39:44.665,-1304,-46,101,-264,-242,-35,594,127,529,28.600000,48.700001,980.419983
16/06/2023,20:39:44.675,-1314,6,158,-240,-293,-55,583,124,562,28.600000,48.700001,980.419983
16/06/2023,20:39:44.684,-1326,25,245,-175,-350,-50,583,124,562,28.600000,48.700001,980.419983
16/06/2023,20:39:44.693,-1321,-14,332,-106,-429,-55,591,117,517,28.600000,48.700001,980.419983
16/06/2023,20:39:44.703,-1417,-113,276,9,-425,-59,595,141,529,28.600000,48.700001,980.419983
16/06/2023,20:39:44.712,-1640,-286,73,303,-310,24,594,124,520,28.600000,48.700001,980.419983
16/06/2023,20:39:44.721,-1748,-396,121,288,-437,87,594,124,520,28.299999,48.700001,980.419983
16/06/2023,20:39:44.731,-1657,-264,279,288,-437,87,591,138,531,28.299999,48.700001,980.359985
16/06/2023,20:39:44.740,-1542,0,284,38,-715,85,601,124,517,28.299999,48.700001,980.359985
16/06/2023,20:39:44.749,-1455,286,327,-133,-988,29,601,124,517,28.299999,48.700001,980.359985
16/06/2023,20:39:44.758,-1260,461,252,-354,-1262,-129,597,124,508,28.299999,48.700001,980.359985
16/06/2023,20:39:44.768,-1119,503,75,-803,-1380,-283,610,121,489,28.299999,48.700001,980.359985
16/06/2023,20:39:44.778,-1107,285,-106,-972,-1514,-437,621,118,489,28.299999,48.700001,980.359985
16/06/2023,20:39:44.787,-1087,-100,-394,-798,-1643,-553,609,120,475,28.299999,48.700001,980.359985
16/06/2023,20:39:44.796,-1211,-206,-582,-452,-1532,-492,640,117,474,28.299999,48.700001,980.359985
16/06/2023,20:39:44.806,-1269,-18,-735,-180,-1506,-438,637,111,474,28.299999,48.700001,980.359985
16/06/2023,20:39:44.815,-1183,189,-727,117,-1438,-296,637,114,460,28.299999,48.700001,980.359985
16/06/2023,20:39:44.825,-1183,189,-727,411,-1297,-197,627,112,469,28.299999,48.700001,980.359985
16/06/2023,20:39:44.834,-1196,239,-541,430,-1188,-115,645,120,451,28.299999,48.700001,980.359985
16/06/2023,20:39:44.843,-1238,123,-520,484,-1103,8,645,120,451,28.299999,48.700001,980.359985
16/06/2023,20:39:44.852,-1251,-14,-505,134,-902,149,661,133,426,28.299999,48.700001,980.359985
16/06/2023,20:39:44.862,-1285,-93,-428,-964,-790,367,652,123,421,28.299999,48.700001,980.359985
16/06/2023,20:39:44.875,-1357,-116,-268,-2138,-1064,557,651,121,441,28.299999,48.700001,980.359985
16/06/2023,20:39:44.881,-1322,-89,-147,-2398,-1546,689,658,112,432,28.299999,48.700001,980.359985
16/06/2023,20:39:44.890,-1133,-21,-174,-1965,-1609,547,657,91,427,28.299999,48.700001,980.359985
16/06/2023,20:39:44.899,-893,96,-176,-1535,-1427,340,649,69,400,28.299999,48.700001,980.359985
16/06/2023,20:39:44.909,-779,226,-143,-1410,-1380,225,649,58,403,28.299999,48.700001,980.359985
16/06/2023,20:39:44.918,-803,236,-180,-1505,-1380,161,675,73,367,28.299999,48.700001,980.359985
16/06/2023,20:39:44.928,-778,86,-232,-1565,-1433,80,661,63,372,28.299999,48.700001,980.359985
16/06/2023,20:39:44.936,-730,-16,-256,-1563,-1417,19,661,63,372,28.299999,48.700001,980.359985
16/06/2023,20:39:44.946,-716,-12,-242,-1373,-1344,-74,685,48,363,28.299999,48.700001,980.359985
16/06/2023,20:39:44.956,-687,-6,-178,-1184,-1234,-155,678,58,360,28.299999,48.700001,980.359985
16/06/2023,20:39:44.965,-652,-35,-154,-1058,-1128,-171,673,42,364,28.299999,48.700001,980.359985
16/06/2023,20:39:44.974,-617,-65,-157,-941,-995,-179,678,49,334,28.299999,48.700001,980.359985
16/06/2023,20:39:44.984,-546,-97,-128,-917,-825,-230,693,43,334,28.299999,48.700001,980.359985
16/06/2023,20:39:44.993,-527,-67,-142,-907,-803,-170,678,46,324,28.299999,48.700001,980.359985
16/06/2023,20:39:45.003,-567,5,-184,-912,-756,-96,693,48,318,28.299999,48.700001,980.359985
16/06/2023,20:39:45.012,-564,46,-166,-917,-684,-90,694,19,325,28.299999,48.700001,980.359985
16/06/2023,20:39:45.025,-554,92,-180,-977,-628,-77,699,24,303,28.299999,48.700001,980.359985
16/06/2023,20:39:45.030,-529,114,-184,-930,-516,-39,699,24,303,28.299999,48.700001,980.359985
16/06/2023,20:39:45.039,-512,166,-120,-832,-361,26,679,49,334,28.299999,48.700001,980.359985
16/06/2023,20:39:45.049,-509,212,-62,-696,-257,74,681,27,306,28.299999,48.700001,980.359985
16/06/2023,20:39:45.059,-515,207,-9,-507,-168,130,696,34,301,28.299999,48.700001,980.359985
16/06/2023,20:39:45.068,-554,194,57,-273,-67,193,687,24,316,28.299999,48.700001,980.359985
16/06/2023,20:39:45.078,-602,167,108,-96,22,252,681,13,304,28.299999,48.700001,980.359985
16/06/2023,20:39:45.087,-649,127,152,-16,119,283,682,27,306,28.299999,48.700001,980.359985
16/06/2023,20:39:45.096,-677,96,202,-16,119,283,678,10,303,28.299999,48.700001,980.359985
16/06/2023,20:39:45.106,-702,83,240,12,188,265,663,1,300,28.299999,48.700001,980.359985
16/06/2023,20:39:45.115,-759,93,263,37,215,276,682,-4,312,28.299999,48.700001,980.359985
16/06/2023,20:39:45.127,-813,146,297,72,272,273,682,-4,312,28.299999,48.700001,980.359985
16/06/2023,20:39:45.134,-873,202,375,94,321,273,664,13,298,28.299999,48.700001,980.359985
16/06/2023,20:39:45.143,-996,237,495,68,356,278,669,7,295,28.299999,48.700001,980.359985
16/06/2023,20:39:45.152,-1125,272,621,-70,338,268,655,7,295,28.299999,48.700001,980.359985
16/06/2023,20:39:45.162,-1128,261,711,-271,246,238,666,-10,318,28.299999,48.700001,980.359985
16/06/2023,20:39:45.171,-1128,261,711,-447,53,206,669,-10,304,28.299999,48.700001,980.359985
16/06/2023,20:39:45.181,-1349,221,911,-537,-142,240,660,-7,298,28.299999,48.700001,980.359985
16/06/2023,20:39:45.190,-1626,177,1061,-500,-415,94,664,-34,291,28.299999,48.700001,980.359985
16/06/2023,20:39:45.199,-1632,162,1041,-278,-617,35,652,-7,303,28.299999,48.700001,980.359985
16/06/2023,20:39:45.208,-1482,180,973,-98,-621,-26,652,-7,303,28.299999,48.700001,980.359985
16/06/2023,20:39:45.217,-1108,225,816,-102,-426,-58,652,-19,298,28.299999,48.700001,980.359985
16/06/2023,20:39:45.231,-761,262,574,-363,-204,-14,675,-9,292,28.299999,48.700001,980.359985
16/06/2023,20:39:45.237,-542,282,317,-698,-7,50,654,-22,298,28.299999,48.700001,980.359985
16/06/2023,20:39:45.246,-439,341,15,-865,138,143,643,-30,298,28.299999,48.700001,980.359985
16/06/2023,20:39:45.256,-700,444,-172,-635,81,138,636,-31,283,28.299999,48.700001,980.359985
16/06/2023,20:39:45.265,-1137,410,-262,-200,205,13,651,-42,274,28.299999,48.700001,980.359985
16/06/2023,20:39:45.274,-1404,228,-299,387,620,-8,649,-55,286,28.299999,48.700001,980.359985
16/06/2023,20:39:45.284,-1497,171,-212,960,911,-80,649,-48,298,28.299999,48.700001,980.359985
16/06/2023,20:39:45.293,-1548,261,158,1212,862,-114,651,-43,303,28.299999,48.700001,980.359985
16/06/2023,20:39:45.302,-1511,326,405,1085,480,-160,651,-43,303,28.299999,48.700001,980.359985
16/06/2023,20:39:45.311,-1439,380,194,1089,411,-165,655,-39,301,28.299999,48.700001,980.359985
16/06/2023,20:39:45.321,-1249,423,-32,852,708,-30,643,-45,309,28.299999,48.700001,980.359985
16/06/2023,20:39:45.330,-829,335,-257,484,918,54,646,-54,321,28.299999,48.700001,980.359985
16/06/2023,20:39:45.340,-468,145,-566,959,1028,75,633,-60,328,28.299999,48.700001,980.359985
16/06/2023,20:39:45.349,-288,-80,-807,1945,1065,146,630,-60,327,28.299999,48.700001,980.359985
16/06/2023,20:39:45.359,-312,-132,-666,2651,1321,95,625,-76,349,28.299999,48.700001,980.359985
16/06/2023,20:39:45.368,-445,6,-223,2601,1324,-58,633,-60,363,28.299999,48.700001,980.359985
16/06/2023,20:39:45.377,-679,31,-37,2263,1455,-134,612,-64,375,28.299999,48.700001,980.359985
16/06/2023,20:39:45.387,-952,-157,-253,2316,1744,-248,598,-46,378,28.299999,48.700001,980.359985
16/06/2023,20:39:45.395,-1126,-326,-426,2529,1952,-376,598,-46,378,28.299999,48.700001,980.359985
16/06/2023,20:39:45.405,-1171,-362,-350,2512,1980,-350,604,-52,405,28.299999,48.700001,980.359985
16/06/2023,20:39:45.415,-1106,-359,-210,2117,1954,-180,606,-34,412,28.299999,48.700001,980.359985
16/06/2023,20:39:45.424,-1073,-334,-162,1622,1902,-35,579,-22,442,28.299999,48.700001,980.359985
16/06/2023,20:39:45.434,-1070,-332,-137,1241,1660,27,589,-21,477,28.299999,48.700001,980.359985
16/06/2023,20:39:45.443,-1004,-322,-97,1241,1660,27,562,-22,459,28.299999,48.700001,980.359985
16/06/2023,20:39:45.452,-961,-179,-90,987,1267,80,565,-21,486,28.299999,48.700001,980.359985
16/06/2023,20:39:45.462,-946,24,-128,764,955,135,573,-15,481,28.299999,48.700001,980.359985
16/06/2023,20:39:45.471,-920,142,-102,460,937,108,571,-19,466,28.299999,48.700001,980.359985
16/06/2023,20:39:45.480,-910,99,-113,90,855,40,558,-46,480,28.299999,48.700001,980.359985
16/06/2023,20:39:45.489,-910,99,-113,-205,678,-45,558,-46,480,28.299999,48.700001,980.359985
16/06/2023,20:39:45.498,-883,42,-91,-314,582,-147,549,-27,471,28.299999,48.700001,980.359985
16/06/2023,20:39:45.508,-862,-127,-127,-36,664,-89,546,-22,478,28.299999,48.700001,980.359985
16/06/2023,20:39:45.518,-862,-127,-127,348,819,-15,561,-25,499,28.299999,48.700001,980.359985
16/06/2023,20:39:45.527,-988,-179,-68,575,794,24,537,-33,487,28.299999,48.700001,980.359985
16/06/2023,20:39:45.537,-1068,-235,-25,538,714,89,543,-19,489,28.299999,48.700001,980.359985
16/06/2023,20:39:45.546,-1078,-141,22,357,577,183,532,-27,493,28.299999,48.700001,980.359985
16/06/2023,20:39:45.555,-1033,-33,28,215,484,161,537,-30,508,28.299999,48.700001,980.359985
16/06/2023,20:39:45.565,-956,-17,-20,229,383,148,532,-18,511,28.299999,48.700001,980.359985
16/06/2023,20:39:45.574,-886,34,-64,303,428,181,528,-25,498,28.299999,48.700001,980.359985
16/06/2023,20:39:45.583,-850,87,-88,398,468,203,528,-25,498,28.299999,48.700001,980.359985
16/06/2023,20:39:45.592,-832,107,-104,492,544,189,535,-25,505,28.299999,48.700001,980.359985
16/06/2023,20:39:45.602,-843,44,-110,481,593,157,517,-25,498,28.299999,48.700001,980.359985
16/06/2023,20:39:45.612,-871,7,-133,431,566,108,522,-13,517,28.299999,48.700001,980.359985
16/06/2023,20:39:45.621,-872,8,-147,437,489,64,511,-22,505,28.299999,48.700001,980.359985
16/06/2023,20:39:45.630,-872,22,-168,458,479,44,519,-18,508,28.299999,48.700001,980.359985
16/06/2023,20:39:45.640,-864,53,-177,408,469,15,516,-12,525,28.299999,48.700001,980.359985
16/06/2023,20:39:45.649,-851,89,-193,296,495,-14,514,-18,522,28.299999,48.700001,980.359985
16/06/2023,20:39:45.658,-879,119,-233,221,535,-37,525,-7,508,28.299999,48.700001,980.359985
16/06/2023,20:39:45.668,-957,157,-236,210,602,-57,511,-12,519,28.299999,48.700001,980.359985
16/06/2023,20:39:45.677,-1011,147,-188,240,597,-70,511,-12,519,28.299999,48.700001,980.359985
16/06/2023,20:39:45.686,-1092,64,-139,225,604,-87,510,-18,508,28.299999,48.700001,980.359985
16/06/2023,20:39:45.696,-1195,-24,-84,145,509,-92,502,-15,495,28.299999,48.700001,980.359985
16/06/2023,20:39:45.705,-1258,-66,-83,107,332,-82,522,-6,517,28.299999,48.700001,980.359985
16/06/2023,20:39:45.715,-1289,-55,-22,7,296,-68,502,1,528,28.299999,48.700001,980.359985
16/06/2023,20:39:45.724,-1274,-21,68,82,181,-28,523,-4,528,28.299999,48.700001,980.359985
16/06/2023,20:39:45.733,-1262,-28,52,157,8,-26,519,-7,511,28.299999,48.700001,980.359985
16/06/2023,20:39:45.743,-1266,-99,49,122,-160,-32,513,0,514,28.299999,48.700001,980.359985
16/06/2023,20:39:45.752,-1274,-143,41,-51,-260,-47,525,-13,522,28.299999,48.700001,980.359985
16/06/2023,20:39:45.761,-1263,-96,6,-28,-192,-42,525,-13,522,28.299999,48.700001,980.359985
16/06/2023,20:39:45.771,-1272,-16,129,159,-177,-50,531,-4,489,28.600000,48.599998,980.349976
16/06/2023,20:39:45.780,-1295,8,324,177,-284,-84,534,-16,502,28.600000,48.599998,980.349976
16/06/2023,20:39:45.790,-1292,-35,443,177,-284,-84,526,3,505,28.600000,48.599998,980.349976
16/06/2023,20:39:45.799,-1426,-113,340,50,-408,-128,513,-10,511,28.600000,48.599998,980.349976
16/06/2023,20:39:45.808,-1643,-267,156,-25,-404,-178,547,15,483,28.600000,48.599998,980.349976
16/06/2023,20:39:45.818,-1728,-342,249,98,-422,-127,552,-7,483,28.600000,48.599998,980.349976
16/06/2023,20:39:45.827,-1639,-124,359,96,-686,-128,571,0,475,28.600000,48.599998,980.349976
16/06/2023,20:39:45.836,-1507,214,347,-133,-969,-198,573,9,469,28.600000,48.599998,980.349976
16/06/2023,20:39:45.845,-1507,214,347,-523,-1172,-282,573,9,469,28.600000,48.599998,980.349976
16/06/2023,20:39:45.855,-1453,535,340,-967,-1485,-445,579,15,490,28.600000,48.599998,980.349976
16/06/2023,20:39:45.864,-1360,475,167,-1124,-1703,-603,585,6,457,28.600000,48.599998,980.349976
16/06/2023,20:39:45.874,-1227,-95,-260,-851,-1721,-598,586,6,459,28.600000,48.599998,980.349976
16/06/2023,20:39:45.883,-1195,-514,-582,-596,-1620,-516,616,10,444,28.600000,48.599998,980.349976
16/06/2023,20:39:45.893,-1252,-380,-657,-269,-1672,-357,610,6,439,28.600000,48.599998,980.349976
16/06/2023,20:39:45.902,-1295,-49,-572,99,-1638,-340,628,28,426,28.600000,48.599998,980.349976
16/06/2023,20:39:45.911,-1272,79,-605,417,-1392,-242,634,13,415,28.600000,48.599998,980.349976
16/06/2023,20:39:45.921,-1250,94,-621,622,-1190,-159,654,42,399,28.600000,48.599998,980.349976
16/06/2023,20:39:45.930,-1233,95,-510,664,-1103,-51,663,30,385,28.600000,48.599998,980.349976
16/06/2023,20:39:45.939,-1200,90,-490,284,-910,98,663,30,385,28.600000,48.599998,980.349976
16/06/2023,20:39:45.948,-1274,33,-355,-851,-864,277,651,45,400,28.600000,48.599998,980.349976
16/06/2023,20:39:45.958,-1355,-30,-171,-2313,-1198,449,675,48,390,28.600000,48.599998,980.349976
16/06/2023,20:39:45.968,-1230,-24,-186,-2695,-1685,479,679,30,379,28.600000,48.599998,980.349976
16/06/2023,20:39:45.977,-1076,66,-212,-2319,-1678,365,684,36,357,28.600000,48.599998,980.349976
16/06/2023,20:39:45.986,-908,254,-232,-1946,-1458,275,684,36,349,28.600000,48.599998,980.349976
16/06/2023,20:39:45.996,-814,274,-222,-1634,-1346,174,682,22,357,28.600000,48.599998,980.349976
16/06/2023,20:39:46.005,-846,112,-177,-1726,-1362,141,697,25,319,28.600000,48.599998,980.349976
16/06/2023,20:39:46.014,-801,15,-257,-1828,-1563,36,700,19,312,28.600000,48.599998,980.349976
16/06/2023,20:39:46.023,-746,11,-278,-1684,-1602,-74,700,19,312,28.600000,48.599998,980.349976
16/06/2023,20:39:46.033,-679,15,-194,-1379,-1479,-194,694,28,300,28.600000,48.599998,980.349976
16/06/2023,20:39:46.042,-611,-3,-179,-1066,-1280,-149,684,15,288,28.600000,48.599998,980.349976
16/06/2023,20:39:46.052,-583,-29,-175,-903,-1065,-200,691,25,282,28.600000,48.599998,980.349976
16/06/2023,20:39:46.061,-548,-66,-155,-861,-936,-224,697,19,282,28.600000,48.599998,980.349976
16/06/2023,20:39:46.071,-520,-98,-171,-868,-845,-177,712,36,274,28.600000,48.599998,980.349976
16/06/2023,20:39:46.080,-532,-109,-179,-914,-768,-94,708,25,274,28.600000,48.599998,980.349976
16/06/2023,20:39:46.089,-535,-83,-172,-941,-680,-48,703,43,262,28.600000,48.599998,980.349976
16/06/2023,20:39:46.099,-584,-65,-145,-1066,-670,-28,723,25,253,28.600000,48.599998,980.349976
16/06/2023,20:39:46.107,-611,-74,-178,-1200,-696,-35,723,25,253,28.600000,48.599998,980.349976
16/06/2023,20:39:46.117,-559,8,-180,-1143,-579,-19,739,19,234,28.600000,48.599998,980.349976
16/06/2023,20:39:46.127,-534,149,-120,-964,-467,78,717,55,256,28.600000,48.599998,980.349976
16/06/2023,20:39:46.136,-535,224,-61,-964,-452,78,711,42,229,28.600000,48.599998,980.349976
16/06/2023,20:39:46.146,-543,234,-16,-776,-363,140,720,30,240,28.600000,48.599998,980.349976
16/06/2023,20:39:46.155,-558,198,16,-571,-290,221,720,30,219,28.600000,48.599998,980.349976
16/06/2023,20:39:46.164,-581,179,50,-348,-196,290,726,36,247,28.600000,48.599998,980.349976
16/06/2023,20:39:46.174,-618,179,95,-199,-69,327,720,45,246,28.600000,48.599998,980.349976
16/06/2023,20:39:46.183,-673,180,170,-115,49,320,723,21,234,28.600000,48.599998,980.349976
16/06/2023,20:39:46.192,-749,183,208,-104,114,292,727,30,261,28.600000,48.599998,980.349976
16/06/2023,20:39:46.201,-749,183,208,-129,160,285,727,30,261,28.600000,48.599998,980.349976
16/06/2023,20:39:46.211,-825,188,246,-138,214,293,714,34,240,28.600000,48.599998,980.349976
16/06/2023,20:39:46.221,-882,204,307,-144,268,255,726,28,243,28.600000,48.599998,980.349976
16/06/2023,20:39:46.230,-921,271,401,-129,329,211,712,36,244,28.600000,48.599998,980.349976
16/06/2023,20:39:46.239,-968,346,581,-246,306,173,717,37,252,28.600000,48.599998,980.349976
16/06/2023,20:39:46.249,-1045,356,736,-509,203,152,717,40,252,28.600000,48.599998,980.349976
16/06/2023,20:39:46.258,-1042,343,754,-773,73,121,706,30,264,28.600000,48.599998,980.349976
16/06/2023,20:39:46.267,-1226,332,839,-894,-99,102,723,43,262,28.600000,48.599998,980.349976
16/06/2023,20:39:46.277,-1463,256,920,-826,-305,21,711,43,255,28.600000,48.599998,980.349976
16/06/2023,20:39:46.286,-1491,207,904,-521,-410,5,729,28,246,28.600000,48.599998,980.349976
16/06/2023,20:39:46.295,-1429,236,910,-193,-420,34,729,28,246,28.600000,48.599998,980.349976
16/06/2023,20:39:46.304,-1123,243,830,-78,-300,40,724,40,252,28.600000,48.599998,980.349976
16/06/2023,20:39:46.314,-786,231,671,-271,-128,40,717,25,244,28.600000,48.599998,980.349976
16/06/2023,20:39:46.324,-595,249,409,-675,51,73,729,30,259,28.600000,48.599998,980.349976
16/06/2023,20:39:46.333,-807,375,161,-892,-43,31,718,39,259,28.600000,48.599998,980.349976
16/06/2023,20:39:46.342,-1286,467,-145,-833,163,-90,730,27,235,28.600000,48.599998,980.349976
16/06/2023,20:39:46.352,-1636,371,-393,-198,509,-180,723,24,262,28.600000,48.599998,980.349976
16/06/2023,20:39:46.361,-1764,235,-432,671,516,-176,723,36,265,28.600000,48.599998,980.349976
16/06/2023,20:39:46.370,-1577,318,-152,944,625,-123,727,54,259,28.600000,48.599998,980.349976
16/06/2023,20:39:46.380,-1326,498,93,668,437,-262,727,43,291,28.600000,48.599998,980.349976
16/06/2023,20:39:46.389,-1151,511,-194,752,179,-309,727,43,291,28.600000,48.599998,980.349976
16/06/2023,20:39:46.399,-826,470,-452,828,421,-84,721,54,282,28.600000,48.599998,980.349976
16/06/2023,20:39:46.408,-440,402,-418,585,714,148,721,54,282,28.600000,48.599998,980.349976
16/06/2023,20:39:46.417,-272,188,-367,796,649,164,730,36,279,28.600000,48.599998,980.349976
16/06/2023,20:39:46.427,-286,-115,-407,1410,705,89,732,49,289,28.600000,48.599998,980.349976
16/06/2023,20:39:46.436,-497,-300,-345,2003,1127,7,726,54,313,28.600000,48.599998,980.349976
16/06/2023,20:39:46.445,-792,-392,-190,2328,1457,-112,730,51,331,28.600000,48.599998,980.349976
16/06/2023,20:39:46.455,-1027,-541,-192,2328,1457,-112,718,36,330,28.600000,48.599998,980.349976
16/06/2023,20:39:46.464,-1208,-681,-302,2323,1812,-326,730,57,342,28.600000,48.599998,980.349976
16/06/2023,20:39:46.473,-1230,-739,-315,2265,1968,-393,730,57,342,28.600000,48.599998,980.349976
16/06/2023,20:39:46.482,-1148,-662,-186,2041,1884,-408,727,90,372,28.600000,48.599998,980.349976
16/06/2023,20:39:46.492,-1097,-457,25,1753,1805,-336,700,84,382,28.600000,48.599998,980.349976
16/06/2023,20:39:46.502,-1061,-252,96,1390,1763,-311,699,93,385,28.600000,48.599998,980.349976
16/06/2023,20:39:46.511,-1041,-109,-14,1087,1614,-209,702,97,411,28.600000,48.599998,980.349976
16/06/2023,20:39:46.520,-1032,26,-80,860,1420,-37,700,87,412,28.600000,48.599998,980.349976
16/06/2023,20:39:46.530,-990,137,-100,566,1197,81,691,91,415,28.600000,48.599998,980.349976
16/06/2023,20:39:46.539,-896,237,-109,223,905,144,682,88,411,28.600000,48.599998,980.349976
16/06/2023,20:39:46.548,-896,237,-109,-229,797,103,688,99,442,28.600000,48.599998,980.349976
16/06/2023,20:39:46.558,-830,295,-37,-746,735,-46,676,103,439,28.600000,48.599998,980.349976
16/06/2023,20:39:46.567,-859,212,19,-1137,566,-175,676,103,439,28.600000,48.599998,980.349976
16/06/2023,20:39:46.576,-877,26,-27,-1312,472,-216,679,91,438,28.600000,48.599998,980.349976
16/06/2023,20:39:46.586,-957,-139,-38,-1250,496,-161,684,90,442,28.600000,48.599998,980.349976
16/06/2023,20:39:46.595,-1069,-185,17,-1070,371,-89,675,88,435,28.600000,48.599998,980.349976
16/06/2023,20:39:46.605,-1060,-116,26,-837,374,51,673,82,474,28.600000,48.599998,980.349976
16/06/2023,20:39:46.614,-993,3,46,-530,522,198,669,76,471,28.600000,48.599998,980.349976
16/06/2023,20:39:46.623,-941,99,88,-314,574,219,673,64,456,28.600000,48.599998,980.349976
16/06/2023,20:39:46.633,-919,189,103,-277,548,195,663,58,454,28.600000,48.599998,980.349976
16/06/2023,20:39:46.642,-911,227,117,-228,472,168,681,69,460,28.600000,48.599998,980.349976
16/06/2023,20:39:46.651,-894,148,88,-117,449,150,652,70,475,28.600000,48.599998,980.349976
16/06/2023,20:39:46.660,-845,68,-43,14,526,156,652,70,475,28.600000,48.599998,980.349976
16/06/2023,20:39:46.670,-811,58,-117,131,653,161,664,79,468,28.600000,48.599998,980.349976
16/06/2023,20:39:46.680,-827,84,-61,126,659,121,639,72,471,28.600000,48.599998,980.349976
16/06/2023,20:39:46.689,-847,95,-57,44,619,50,652,60,472,28.600000,48.599998,980.349976
16/06/2023,20:39:46.698,-879,69,-86,29,589,7,658,66,489,28.600000,48.599998,980.349976
16/06/2023,20:39:46.708,-895,21,-100,124,536,-4,646,70,478,28.600000,48.599998,980.349976
16/06/2023,20:39:46.717,-898,-2,-133,261,559,-2,624,73,486,28.600000,48.599998,980.349976
16/06/2023,20:39:46.726,-957,22,-161,373,536,-8,630,75,492,28.600000,48.599998,980.349976
16/06/2023,20:39:46.736,-981,57,-196,348,495,-26,630,60,510,28.600000,48.599998,980.349976
16/06/2023,20:39:46.745,-981,80,-194,184,540,-68,640,79,496,28.600000,48.599998,980.349976
16/06/2023,20:39:46.757,-1030,96,-127,10,499,-112,640,79,496,28.600000,48.599998,980.349976
16/06/2023,20:39:46.763,-1091,83,-95,-43,313,-167,628,96,520,28.600000,48.599998,980.349976
16/06/2023,20:39:46.773,-1164,95,-65,-82,393,-169,628,96,520,28.600000,48.599998,980.349976
16/06/2023,20:39:46.783,-1203,158,18,-44,370,-184,636,67,475,28.600000,48.599998,980.349976
16/06/2023,20:39:46.792,-1225,192,73,36,304,-212,628,88,522,28.600000,48.599998,980.349976
16/06/2023,20:39:46.801,-1257,199,108,27,195,-243,622,87,522,28.600000,48.599998,980.349976
16/06/2023,20:39:46.810,-1269,184,125,-67,81,-280,613,100,537,28.299999,47.900002,980.409973
16/06/2023,20:39:46.820,-1258,129,124,-67,81,-280,633,90,526,28.299999,47.900002,980.409973
16/06/2023,20:39:46.829,-1211,50,110,-268,-47,-312,616,99,517,28.299999,47.900002,980.409973
16/06/2023,20:39:46.839,-1180,-35,121,-478,-137,-319,615,88,504,28.299999,47.900002,980.409973
16/06/2023,20:39:46.848,-1184,-95,193,-556,-166,-319,615,88,504,28.299999,47.900002,980.409973
16/06/2023,20:39:46.857,-1214,-154,340,-559,-253,-360,631,82,520,28.299999,47.900002,980.409973
16/06/2023,20:39:46.867,-1418,-257,382,-443,-414,-293,622,93,514,28.299999,47.900002,980.409973
16/06/2023,20:39:46.876,-1791,-321,115,-433,-626,-319,610,94,508,28.299999,47.900002,980.409973
16/06/2023,20:39:46.886,-1904,-286,-79,-229,-726,-329,634,100,510,28.299999,47.900002,980.409973
16/06/2023,20:39:46.895,-1904,-286,-79,-29,-1091,-482,622,99,498,28.299999,47.900002,980.409973
16/06/2023,20:39:46.904,-1808,-97,-10,-545,-1348,-593,646,100,489,28.299999,47.900002,980.409973
16/06/2023,20:39:46.914,-1732,152,175,-1590,-1490,-610,664,97,477,28.299999,47.900002,980.409973
16/06/2023,20:39:46.923,-1561,191,204,-2115,-1803,-800,652,87,460,28.299999,47.900002,980.409973
16/06/2023,20:39:46.933,-1378,-48,-105,-2170,-1872,-863,669,90,474,28.299999,47.900002,980.409973
16/06/2023,20:39:46.941,-1208,-368,-439,-1927,-1827,-736,669,90,474,28.299999,47.900002,980.409973
16/06/2023,20:39:46.951,-1139,-563,-501,-1443,-1725,-586,690,88,462,28.299999,47.900002,980.409973
16/06/2023,20:39:46.961,-1199,-449,-419,-872,-1702,-464,681,79,450,28.299999,47.900002,980.409973
16/06/2023,20:39:46.970,-1210,-230,-449,-375,-1469,-307,681,79,450,28.299999,47.900002,980.409973
16/06/2023,20:39:46.979,-1180,-230,-481,25,-1220,-134,712,63,421,28.299999,47.900002,980.409973
16/06/2023,20:39:46.989,-1176,-285,-448,-3,-955,29,721,69,400,28.299999,47.900002,980.409973
16/06/2023,20:39:46.998,-1187,-265,-376,-469,-929,112,706,91,393,28.299999,47.900002,980.409973
16/06/2023,20:39:47.007,-1206,-267,-312,-1514,-905,225,703,70,411,28.299999,47.900002,980.409973
16/06/2023,20:39:47.017,-1180,-277,-299,-2593,-948,302,715,75,382,28.299999,47.900002,980.409973
16/06/2023,20:39:47.026,-1076,-225,-321,-2863,-1038,279,711,46,367,28.299999,47.900002,980.409973
16/06/2023,20:39:47.035,-971,-135,-332,-2866,-1227,252,711,46,367,28.299999,47.900002,980.409973
16/06/2023,20:39:47.044,-881,-43,-260,-2866,-1292,123,717,43,372,28.299999,47.900002,980.409973
16/06/2023,20:39:47.054,-793,57,-207,-2730,-1220,71,733,43,360,28.299999,47.900002,980.409973
16/06/2023,20:39:47.064,-788,73,-230,-2691,-1199,69,736,48,331,28.299999,47.900002,980.409973
16/06/2023,20:39:47.073,-796,-44,-256,-2575,-1233,6,724,33,325,28.299999,47.900002,980.409973
16/06/2023,20:39:47.082,-762,-183,-235,-2394,-1230,-46,744,16,318,28.299999,47.900002,980.409973
16/06/2023,20:39:47.092,-756,-269,-207,-2204,-1223,-56,739,19,316,28.299999,47.900002,980.409973
16/06/2023,20:39:47.101,-732,-314,-164,-2012,-1164,-27,733,19,283,28.299999,47.900002,980.409973
16/06/2023,20:39:47.111,-735,-327,-123,-1936,-1109,11,736,18,286,28.299999,47.900002,980.409973
16/06/2023,20:39:47.119,-773,-311,-98,-1864,-1094,26,736,18,286,28.299999,47.900002,980.409973
16/06/2023,20:39:47.129,-781,-303,-102,-1857,-1034,83,735,16,282,28.299999,47.900002,980.409973
16/06/2023,20:39:47.139,-808,-285,-145,-1931,-961,137,748,33,264,28.299999,47.900002,980.409973
16/06/2023,20:39:47.148,-860,-270,-205,-2061,-941,195,736,6,238,28.299999,47.900002,980.409973
16/06/2023,20:39:47.157,-886,-218,-262,-2143,-923,238,741,3,237,28.299999,47.900002,980.409973
16/06/2023,20:39:47.167,-876,-115,-263,-2143,-923,238,738,3,225,28.299999,47.900002,980.409973
16/06/2023,20:39:47.176,-837,-31,-209,-2093,-886,269,745,6,210,28.299999,47.900002,980.409973
16/06/2023,20:39:47.186,-782,72,-178,-1970,-780,276,736,16,189,28.299999,47.900002,980.409973
16/06/2023,20:39:47.195,-652,149,-152,-1796,-715,319,745,9,210,28.299999,47.900002,980.409973
16/06/2023,20:39:47.204,-628,252,-98,-1554,-578,426,729,10,192,28.299999,47.900002,980.409973
16/06/2023,20:39:47.213,-628,407,-98,-1347,-502,439,729,10,192,28.299999,47.900002,980.409973
16/06/2023,20:39:47.222,-680,407,-98,-1166,-455,430,741,3,181,28.299999,47.900002,980.409973
16/06/2023,20:39:47.232,-693,400,-62,-1023,-347,437,732,-9,181,28.299999,47.900002,980.409973
16/06/2023,20:39:47.242,-693,400,-62,-938,-275,427,747,-9,172,28.299999,47.900002,980.409973
16/06/2023,20:39:47.251,-729,348,-43,-918,-235,384,744,0,171,28.299999,47.900002,980.409973
16/06/2023,20:39:47.260,-774,283,-29,-981,-235,361,742,-9,160,28.299999,47.900002,980.409973
16/06/2023,20:39:47.270,-812,272,-43,-1040,-232,334,738,-18,156,28.299999,47.900002,980.409973
16/06/2023,20:39:47.279,-851,303,-16,-1120,-226,280,741,-21,141,28.299999,47.900002,980.409973
16/06/2023,20:39:47.289,-864,324,26,-1212,-266,274,717,-18,150,28.299999,47.900002,980.409973
16/06/2023,20:39:47.298,-816,310,56,-1270,-246,255,744,-15,145,28.299999,47.900002,980.409973
16/06/2023,20:39:47.307,-799,274,135,-1291,-223,232,744,-15,145,28.299999,47.900002,980.409973
16/06/2023,20:39:47.316,-845,275,248,-1280,-272,202,723,-10,126,28.299999,47.900002,980.409973
16/06/2023,20:39:47.326,-883,283,361,-1180,-341,185,736,-16,133,28.299999,47.900002,980.409973
16/06/2023,20:39:47.335,-961,292,450,-996,-450,197,721,-39,126,28.299999,47.900002,980.409973
16/06/2023,20:39:47.345,-1116,283,623,-774,-533,160,726,-22,115,28.299999,47.900002,980.409973
16/06/2023,20:39:47.357,-1192,291,814,-485,-583,256,724,-19,109,28.299999,47.900002,980.409973
16/06/2023,20:39:47.364,-1395,335,950,-351,-675,228,714,-24,111,28.299999,47.900002,980.409973
16/06/2023,20:39:47.373,-1561,269,977,-373,-688,129,724,-25,99,28.299999,47.900002,980.409973
16/06/2023,20:39:47.382,-1360,104,839,-474,-593,154,735,-31,90,28.299999,47.900002,980.409973
16/06/2023,20:39:47.392,-1033,7,675,-636,-482,185,727,-28,87,28.299999,47.900002,980.409973
16/06/2023,20:39:47.400,-796,7,515,-839,-396,214,727,-28,87,28.299999,47.900002,980.409973
16/06/2023,20:39:47.410,-937,92,304,-947,-435,177,718,-22,85,28.299999,47.900002,980.409973
16/06/2023,20:39:47.420,-1266,211,-33,-935,-196,119,705,-24,64,28.299999,47.900002,980.409973
16/06/2023,20:39:47.429,-1574,218,-225,-652,144,13,712,-25,52,28.299999,47.900002,980.409973
16/06/2023,20:39:47.438,-1772,223,-264,-115,146,19,718,-24,67,28.299999,47.900002,980.409973
16/06/2023,20:39:47.448,-1697,309,-126,109,190,-69,702,-28,76,28.299999,47.900002,980.409973
16/06/2023,20:39:47.457,-1393,446,110,-317,282,-156,717,-34,84,28.299999,47.900002,980.409973
16/06/2023,20:39:47.467,-913,436,-178,-312,494,-155,715,-6,64,28.299999,47.900002,980.409973
16/06/2023,20:39:47.476,-467,257,-797,511,574,-25,718,-39,73,28.299999,47.900002,980.409973
16/06/2023,20:39:47.485,-147,275,-1009,1101,660,245,718,-19,78,28.299999,47.900002,980.409973
16/06/2023,20:39:47.494,4,508,-655,1149,798,401,718,-19,78,28.299999,47.900002,980.409973
16/06/2023,20:39:47.503,-127,649,-100,1090,630,361,714,-51,90,28.299999,47.900002,980.409973
16/06/2023,20:39:47.513,-443,420,3,1090,630,361,724,-48,115,28.299999,47.900002,980.409973
16/06/2023,20:39:47.523,-752,-18,-394,1255,623,229,715,-63,118,28.299999,47.900002,980.409973
16/06/2023,20:39:47.532,-1031,-342,-594,1951,1163,93,735,-72,138,28.299999,47.900002,980.409973
16/06/2023,20:39:47.542,-1272,-572,-448,2666,1716,-150,726,-87,150,28.299999,47.900002,980.409973
16/06/2023,20:39:47.551,-1346,-753,-254,2739,1848,-289,732,-64,181,28.299999,47.900002,980.409973
16/06/2023,20:39:47.560,-1271,-714,-110,2133,1833,-308,730,-72,211,28.299999,47.900002,980.409973
16/06/2023,20:39:47.569,-1271,-714,-110,1404,1820,-245,730,-82,208,28.299999,47.900002,980.409973
16/06/2023,20:39:47.578,-1141,-475,16,1107,1808,-149,730,-82,208,28.299999,47.900002,980.409973
16/06/2023,20:39:47.588,-1006,-263,85,1142,1610,14,741,-76,232,28.299999,47.900002,980.409973
16/06/2023,20:39:47.598,-916,-129,34,1182,1483,241,738,-63,253,28.299999,47.900002,980.409973
16/06/2023,20:39:47.607,-903,-7,-97,977,1334,354,736,-51,253,28.299999,47.900002,980.409973
16/06/2023,20:39:47.616,-902,87,-157,567,1409,366,733,-70,273,28.299999,47.900002,980.409973
16/06/2023,20:39:47.626,-916,167,-67,9,1322,238,724,-82,283,28.299999,47.900002,980.409973
16/06/2023,20:39:47.635,-927,142,-10,-572,900,-22,733,-97,313,28.299999,47.900002,980.409973
16/06/2023,20:39:47.645,-961,27,-107,-1249,490,-146,732,-73,297,28.299999,47.900002,980.409973
16/06/2023,20:39:47.654,-1006,6,-129,-1725,257,-174,723,-94,300,28.299999,47.900002,980.409973
16/06/2023,20:39:47.663,-1014,17,-27,-1959,208,-139,723,-93,285,28.299999,47.900002,980.409973
16/06/2023,20:39:47.672,-1034,-27,30,-1923,165,-87,723,-93,285,28.299999,47.900002,980.409973
16/06/2023,20:39:47.681,-982,-33,13,-1570,405,60,739,-91,301,28.299999,47.900002,980.409973
16/06/2023,20:39:47.691,-883,16,8,-965,616,156,711,-84,283,28.299999,47.900002,980.409973
16/06/2023,20:39:47.701,-871,41,23,-196,659,250,726,-88,283,28.299999,47.900002,980.409973
16/06/2023,20:39:47.710,-936,-9,-11,434,692,353,721,-97,285,28.299999,47.900002,980.409973
16/06/2023,20:39:47.720,-962,-100,-78,778,767,440,703,-99,300,28.299999,47.900002,980.409973
16/06/2023,20:39:47.729,-928,-91,-125,768,801,472,718,-91,301,28.299999,47.900002,980.409973
16/06/2023,20:39:47.738,-910,35,-119,518,780,486,715,-94,292,28.299999,47.900002,980.409973
16/06/2023,20:39:47.748,-886,159,-113,250,710,423,717,-103,315,28.299999,47.900002,980.409973
16/06/2023,20:39:47.757,-857,244,-112,130,682,342,712,-103,318,28.299999,47.900002,980.409973
16/06/2023,20:39:47.766,-865,274,-89,42,605,255,712,-103,318,28.299999,47.900002,980.409973
16/06/2023,20:39:47.775,-885,230,-112,48,553,198,675,-115,352,28.299999,47.900002,980.409973
16/06/2023,20:39:47.785,-902,142,-184,172,544,167,702,-112,339,28.299999,47.900002,980.409973
16/06/2023,20:39:47.794,-889,90,-250,288,602,164,705,-115,336,28.299999,47.900002,980.409973
16/06/2023,20:39:47.804,-885,158,-281,371,687,168,708,-115,352,28.299999,47.900002,980.409973
16/06/2023,20:39:47.813,-926,281,-254,357,741,124,687,-121,351,28.299999,47.900002,980.409973
16/06/2023,20:39:47.823,-990,343,-204,252,717,29,675,-109,354,28.299999,47.900002,980.409973
16/06/2023,20:39:47.832,-1071,299,-161,141,668,-42,685,-100,351,28.299999,47.900002,980.409973
16/06/2023,20:39:47.841,-1164,198,-98,141,668,-42,673,-121,373,28.299999,47.900002,980.409973
16/06/2023,20:39:47.852,-1232,84,2,67,582,-94,673,-121,373,28.600000,48.400002,980.409973
16/06/2023,20:39:47.859,-1255,-17,108,38,430,-116,669,-114,390,28.600000,48.400002,980.330017
16/06/2023,20:39:47.869,-1254,-80,145,68,289,-120,684,-115,384,28.600000,48.400002,980.330017
16/06/2023,20:39:47.879,-1253,-112,54,95,126,-110,675,-105,387,28.600000,48.400002,980.330017
16/06/2023,20:39:47.888,-1259,-109,-25,162,61,-61,675,-121,382,28.600000,48.400002,980.330017
16/06/2023,20:39:47.898,-1251,-80,-51,77,34,-28,675,-102,391,28.600000,48.400002,980.330017
16/06/2023,20:39:47.907,-1246,-76,-40,-141,8,-21,675,-127,382,28.600000,48.400002,980.330017
16/06/2023,20:39:47.916,-1254,-81,51,-416,-44,-42,681,-108,417,28.600000,48.400002,980.330017
16/06/2023,20:39:47.926,-1254,-104,169,-612,-93,-68,684,-108,394,28.600000,48.400002,980.330017
16/06/2023,20:39:47.935,-1272,-104,169,-675,-166,-116,663,-121,391,28.600000,48.400002,980.330017
16/06/2023,20:39:47.944,-1387,-173,311,-707,-265,-194,663,-121,391,28.600000,48.400002,980.330017
16/06/2023,20:39:47.953,-1660,-312,248,-692,-269,-266,688,-109,372,28.600000,48.400002,980.330017
16/06/2023,20:39:47.963,-1852,-496,35,-500,-377,-210,678,-114,382,28.600000,48.400002,980.330017
16/06/2023,20:39:47.972,-1798,-522,-36,-452,-632,-162,669,-100,382,28.600000,48.400002,980.330017
16/06/2023,20:39:47.982,-1677,-251,77,-457,-752,-81,682,-114,382,28.600000,48.400002,980.330017
16/06/2023,20:39:47.991,-1582,139,227,-469,-956,-139,684,-105,361,28.600000,48.400002,980.330017
16/06/2023,20:39:48.001,-1465,481,283,-525,-1151,-382,688,-115,360,28.600000,48.400002,980.330017
16/06/2023,20:39:48.013,-1288,580,132,-871,-1445,-585,691,-108,339,28.600000,48.400002,980.330017
16/06/2023,20:39:48.019,-1148,326,-108,-1191,-1496,-638,685,-99,331,28.600000,48.400002,980.330017
16/06/2023,20:39:48.028,-1111,29,-164,-1284,-1550,-643,685,-99,331,28.600000,48.400002,980.330017
16/06/2023,20:39:48.037,-1097,-90,-177,-1038,-1571,-651,699,-108,321,28.600000,48.400002,980.330017
16/06/2023,20:39:48.047,-1109,-70,-341,-432,-1508,-615,694,-106,322,28.600000,48.400002,980.330017
16/06/2023,20:39:48.057,-1128,-105,-584,492,-1346,-500,705,-112,306,28.600000,48.400002,980.330017
16/06/2023,20:39:48.066,-1077,-255,-703,1358,-1096,-362,723,-91,300,28.600000,48.400002,980.330017
16/06/2023,20:39:48.076,-1108,-247,-646,1932,-949,-167,730,-70,291,28.600000,48.400002,980.330017
16/06/2023,20:39:48.085,-1157,-55,-491,1681,-758,-57,702,-69,306,28.600000,48.400002,980.330017
16/06/2023,20:39:48.094,-1095,0,-595,356,-580,45,712,-79,312,28.600000,48.400002,980.330017
16/06/2023,20:39:48.104,-1138,-142,-649,-2003,-752,215,705,-81,309,28.600000,48.400002,980.330017
16/06/2023,20:39:48.113,-1247,-249,-323,-2814,-1592,61,706,-96,309,28.600000,48.400002,980.330017
16/06/2023,20:39:48.122,-1188,-141,-116,-2866,-1956,14,706,-96,309,28.600000,48.400002,980.330017
16/06/2023,20:39:48.131,-1019,36,-147,-2285,-1668,235,720,-79,273,28.600000,48.400002,980.330017
16/06/2023,20:39:48.141,-946,43,-176,-1891,-1282,295,717,-85,229,28.600000,48.400002,980.330017
16/06/2023,20:39:48.151,-915,-67,-155,-1978,-1366,138,724,-85,211,28.600000,48.400002,980.330017
16/06/2023,20:39:48.160,-811,-79,-259,-2107,-1534,90,717,-72,204,28.600000,48.400002,980.330017
16/06/2023,20:39:48.169,-741,-47,-269,-2102,-1497,8,717,-72,204,28.600000,48.400002,980.330017
16/06/2023,20:39:48.179,-735,-115,-149,-1973,-1483,-36,714,-112,169,28.600000,48.400002,980.330017
16/06/2023,20:39:48.188,-708,-177,-160,-1771,-1435,-54,724,-78,139,28.600000,48.400002,980.330017
16/06/2023,20:39:48.197,-675,-181,-183,-1771,-1435,-54,723,-69,141,28.600000,48.400002,980.330017
16/06/2023,20:39:48.207,-657,-180,-175,-1489,-1350,-140,706,-69,138,28.600000,48.400002,980.330017
16/06/2023,20:39:48.215,-654,-182,-168,-1237,-1295,-236,706,-69,138,28.600000,48.400002,980.330017
16/06/2023,20:39:48.225,-660,-200,-196,-1112,-1233,-248,715,-64,123,28.600000,48.400002,980.330017
16/06/2023,20:39:48.235,-679,-226,-266,-1234,-1161,-200,715,-58,105,28.600000,48.400002,980.330017
16/06/2023,20:39:48.244,-696,-227,-300,-1468,-1077,-150,729,-69,103,28.600000,48.400002,980.330017
16/06/2023,20:39:48.257,-700,-151,-284,-1601,-984,-108,702,-52,84,28.600000,48.400002,980.330017
16/06/2023,20:39:48.263,-706,-46,-252,-1602,-888,-49,700,-49,78,28.600000,48.400002,980.330017
16/06/2023,20:39:48.272,-706,-46,-252,-1500,-805,3,708,-37,69,28.600000,48.400002,980.330017
16/06/2023,20:39:48.282,-683,35,-184,-1349,-695,65,688,-45,66,28.600000,48.400002,980.330017
16/06/2023,20:39:48.291,-649,166,-125,-1108,-581,155,724,-49,63,28.600000,48.400002,980.330017
16/06/2023,20:39:48.300,-627,281,-94,-892,-444,251,687,-54,55,28.600000,48.400002,980.330017
16/06/2023,20:39:48.309,-602,347,-64,-712,-337,299,687,-54,55,28.600000,48.400002,980.330017
16/06/2023,20:39:48.319,-583,327,-55,-570,-263,331,690,-58,51,28.600000,48.400002,980.330017
16/06/2023,20:39:48.329,-593,225,-48,-511,-201,376,711,-52,31,28.600000,48.400002,980.330017
16/06/2023,20:39:48.338,-620,129,-27,-534,-173,387,702,-49,45,28.600000,48.400002,980.330017
16/06/2023,20:39:48.347,-628,109,4,-554,-130,379,688,-48,36,28.600000,48.400002,980.330017
16/06/2023,20:39:48.357,-646,153,36,-554,-67,358,699,-67,51,28.600000,48.400002,980.330017
16/06/2023,20:39:48.366,-708,175,50,-554,55,338,705,-64,33,28.600000,48.400002,980.330017
16/06/2023,20:39:48.375,-806,183,77,-564,230,302,688,-69,31,28.600000,48.400002,980.330017
16/06/2023,20:39:48.385,-906,221,183,-567,369,241,694,-72,28,28.600000,48.400002,980.330017
16/06/2023,20:39:48.394,-1002,287,372,-602,401,174,691,-69,27,28.600000,48.400002,980.330017
16/06/2023,20:39:48.403,-1103,337,553,-737,318,145,691,-69,27,28.600000,48.400002,980.330017
16/06/2023,20:39:48.413,-1196,369,679,-850,167,135,688,-72,30,28.600000,48.400002,980.330017
16/06/2023,20:39:48.422,-1290,385,843,-786,-78,111,691,-75,30,28.600000,48.400002,980.330017
16/06/2023,20:39:48.432,-1432,370,1044,-688,-326,82,714,-75,16,28.600000,48.400002,980.330017
16/06/2023,20:39:48.441,-1568,369,1158,-509,-538,28,693,-75,3,28.600000,48.400002,980.330017
16/06/2023,20:39:48.450,-1453,356,1089,-258,-610,34,678,-69,30,28.600000,48.400002,980.330017
16/06/2023,20:39:48.460,-1165,257,856,-225,-383,93,682,-66,18,28.600000,48.400002,980.330017
16/06/2023,20:39:48.469,-887,164,604,-451,-110,151,682,-81,-4,28.600000,48.400002,980.330017
16/06/2023,20:39:48.478,-665,99,359,-812,-16,231,687,-84,1,28.600000,48.400002,980.330017
16/06/2023,20:39:48.487,-857,123,-99,-776,-198,181,687,-84,1,28.600000,48.400002,980.330017
16/06/2023,20:39:48.497,-1365,225,-481,-334,202,35,676,-85,6,28.600000,48.400002,980.330017
16/06/2023,20:39:48.507,-1700,345,-557,343,373,-120,681,-69,-19,28.600000,48.400002,980.330017
16/06/2023,20:39:48.516,-1693,459,-400,620,488,-257,681,-64,-4,28.600000,48.400002,980.330017
16/06/2023,20:39:48.525,-1443,461,-191,331,370,-276,678,-93,-7,28.600000,48.400002,980.330017
16/06/2023,20:39:48.535,-1202,500,-295,389,38,-344,693,-82,-16,28.600000,48.400002,980.330017
16/06/2023,20:39:48.544,-932,580,-454,389,38,-344,696,-82,-28,28.600000,48.400002,980.330017
16/06/2023,20:39:48.553,-578,551,-521,459,34,-217,703,-87,-13,28.600000,48.400002,980.330017
16/06/2023,20:39:48.563,-336,373,-446,236,393,19,679,-97,-10,28.600000,48.400002,980.330017
16/06/2023,20:39:48.572,-281,2,-327,541,509,4,697,-99,-19,28.600000,48.400002,980.330017
16/06/2023,20:39:48.581,-450,-315,-369,1271,745,-5,697,-99,-19,28.600000,48.400002,980.330017
16/06/2023,20:39:48.590,-702,-560,-314,1935,1265,-83,699,-94,4,28.600000,48.400002,980.330017
16/06/2023,20:39:48.600,-969,-718,-167,2220,1597,-118,703,-129,13,28.600000,48.400002,980.330017
16/06/2023,20:39:48.610,-1194,-717,-162,1876,1606,-126,702,-111,13,28.600000,48.400002,980.330017
16/06/2023,20:39:48.619,-1194,-717,-162,1556,1632,-224,708,-121,31,28.600000,48.400002,980.330017
16/06/2023,20:39:48.628,-1206,-713,-232,1504,1680,-299,729,-144,54,28.600000,48.400002,980.330017
16/06/2023,20:39:48.638,-1085,-593,-218,1336,1554,-286,730,-141,84,28.600000,48.400002,980.330017
16/06/2023,20:39:48.647,-995,-373,-90,1160,1605,-221,721,-138,91,28.600000,48.400002,980.330017
16/06/2023,20:39:48.656,-1019,-236,46,1050,1544,-15,742,-135,94,28.600000,48.400002,980.330017
16/06/2023,20:39:48.666,-1065,-187,63,818,1337,129,745,-130,112,28.600000,48.400002,980.330017
16/06/2023,20:39:48.675,-1062,-106,-58,468,1102,293,745,-130,112,28.600000,48.400002,980.330017
16/06/2023,20:39:48.684,-1027,60,-188,87,1000,277,744,-127,124,28.600000,48.400002,980.330017
16/06/2023,20:39:48.694,-997,185,-126,-421,914,143,738,-145,126,28.600000,48.400002,980.330017
16/06/2023,20:39:48.703,-960,152,-31,-1053,538,-21,744,-135,133,28.600000,48.400002,980.330017
16/06/2023,20:39:48.713,-917,84,-158,-1587,331,-77,721,-127,145,28.600000,48.400002,980.330017
16/06/2023,20:39:48.722,-906,214,-184,-1831,367,-18,736,-127,111,28.600000,48.400002,980.330017
16/06/2023,20:39:48.731,-886,297,26,-1889,435,-13,742,-114,106,28.600000,48.400002,980.330017
16/06/2023,20:39:48.741,-924,152,112,-1715,393,-45,721,-118,97,28.600000,48.400002,980.330017
16/06/2023,20:39:48.750,-1009,-3,106,-1388,354,21,735,-109,102,28.600000,48.400002,980.330017
16/06/2023,20:39:48.763,-1004,6,39,-939,343,154,718,-99,99,28.600000,48.400002,980.330017
16/06/2023,20:39:48.768,-940,85,0,-465,385,232,718,-99,99,28.600000,48.400002,980.330017
16/06/2023,20:39:48.778,-879,84,-36,-119,511,297,706,-99,99,28.600000,48.400002,980.330017
16/06/2023,20:39:48.788,-890,54,-15,79,590,320,720,-100,103,28.600000,48.400002,980.330017
16/06/2023,20:39:48.797,-895,60,-20,113,640,326,721,-109,109,28.600000,48.400002,980.330017
16/06/2023,20:39:48.806,-866,107,-78,193,704,298,724,-117,109,28.600000,48.400002,980.330017
16/06/2023,20:39:48.816,-861,133,-39,168,690,232,721,-109,109,28.600000,48.400002,980.330017
16/06/2023,20:39:48.825,-852,147,-83,58,665,138,709,-91,112,28.600000,48.400002,980.330017
16/06/2023,20:39:48.834,-867,115,-149,-67,622,56,718,-121,136,28.600000,48.400002,980.330017
16/06/2023,20:39:48.844,-893,57,-213,-127,591,11,708,-114,127,28.600000,48.400002,980.330017
16/06/2023,20:39:48.853,-922,11,-232,-108,569,-3,720,-117,141,28.600000,48.400002,980.330017
16/06/2023,20:39:48.865,-942,-18,-218,-47,585,-6,720,-117,141,28.600000,48.400002,980.330017
16/06/2023,20:39:48.872,-966,-23,-212,25,603,-8,702,-96,142,28.600000,48.400002,980.330017
16/06/2023,20:39:48.881,-1034,20,-207,75,605,-6,708,-100,123,28.600000,48.400002,980.330017
16/06/2023,20:39:48.891,-1095,100,-151,75,605,-6,699,-84,133,28.600000,48.400002,980.330017
16/06/2023,20:39:48.900,-1152,173,-46,1,563,-12,681,-100,156,28.600000,48.400002,980.270020
16/06/2023,20:39:48.909,-1214,188,40,-121,559,-46,697,-90,139,28.600000,48.400002,980.270020
16/06/2023,20:39:48.919,-1260,180,80,-167,468,-86,712,-90,165,28.600000,48.400002,980.270020
16/06/2023,20:39:48.928,-1281,178,108,-110,350,-116,693,-72,151,28.600000,48.400002,980.270020
16/06/2023,20:39:48.937,-1264,153,134,-26,272,-135,693,-72,151,28.600000,48.400002,980.270020
16/06/2023,20:39:48.946,-1264,153,134,-31,190,-172,706,-82,147,28.600000,48.400002,980.270020
16/06/2023,20:39:48.956,-1246,62,162,-139,111,-208,705,-69,144,28.600000,48.400002,980.270020
16/06/2023,20:39:48.966,-1246,62,162,-319,31,-250,699,-70,168,28.600000,48.400002,980.270020
16/06/2023,20:39:48.975,-1237,-4,179,-531,-82,-293,694,-66,153,28.600000,48.400002,980.270020
16/06/2023,20:39:48.984,-1228,-120,175,-660,-187,-311,691,-51,166,28.600000,48.400002,980.270020
16/06/2023,20:39:48.994,-1234,-251,175,-653,-196,-275,696,-54,141,28.600000,48.400002,980.270020
16/06/2023,20:39:49.003,-1304,-360,257,-611,-284,-215,696,-49,154,28.600000,48.400002,980.270020
16/06/2023,20:39:49.012,-1421,-394,373,-660,-415,-222,691,-39,147,28.600000,48.400002,980.270020
16/06/2023,20:39:49.022,-1583,-378,281,-671,-416,-222,678,-30,159,28.600000,48.400002,980.270020
16/06/2023,20:39:49.031,-1660,-281,100,-443,-541,-238,678,-30,159,28.600000,48.400002,980.270020
16/06/2023,20:39:49.040,-1618,47,151,-392,-929,-388,676,-22,157,28.600000,48.400002,980.270020
16/06/2023,20:39:49.050,-1534,438,320,-903,-1307,-644,681,-12,130,28.600000,48.400002,980.270020
16/06/2023,20:39:49.059,-1460,499,254,-1390,-1560,-805,679,7,136,28.600000,48.400002,980.270020
16/06/2023,20:39:49.069,-1425,260,32,-1547,-1820,-958,667,-10,147,28.600000,48.400002,980.270020
16/06/2023,20:39:49.078,-1245,-154,-266,-1354,-1905,-976,663,0,118,28.600000,48.400002,980.270020
16/06/2023,20:39:49.087,-1084,-624,-570,-996,-1695,-834,667,7,103,28.600000,48.400002,980.270020
16/06/2023,20:39:49.097,-1175,-811,-626,-822,-1640,-646,658,16,96,28.600000,48.400002,980.270020
16/06/2023,20:39:49.106,-1259,-578,-612,-864,-1492,-358,654,16,94,28.600000,48.400002,980.270020
16/06/2023,20:39:49.115,-1177,-206,-707,-1053,-1151,-222,622,27,112,28.600000,48.400002,980.270020
16/06/2023,20:39:49.124,-1084,-144,-728,-975,-1013,-80,622,27,112,28.600000,48.400002,980.270020
16/06/2023,20:39:49.134,-1129,-243,-523,-686,-968,-9,627,30,93,28.600000,48.400002,980.270020
16/06/2023,20:39:49.144,-1249,-338,-326,-974,-931,108,655,51,97,28.600000,48.400002,980.270020
16/06/2023,20:39:49.153,-1263,-427,-335,-1862,-883,384,661,1,94,28.600000,48.400002,980.270020
16/06/2023,20:39:49.162,-1224,-258,-365,-2679,-987,485,649,27,87,28.600000,48.400002,980.270020
16/06/2023,20:39:49.172,-1150,-99,-320,-2866,-1263,397,648,27,79,28.600000,48.400002,980.270020
16/06/2023,20:39:49.181,-982,-86,-313,-2703,-1354,290,642,45,69,28.600000,48.400002,980.270020
16/06/2023,20:39:49.190,-826,47,-312,-2589,-1204,251,627,52,87,28.600000,48.400002,980.270020
16/06/2023,20:39:49.200,-788,147,-277,-2572,-1191,166,628,36,67,28.600000,48.400002,980.270020
16/06/2023,20:39:49.209,-828,65,-214,-2419,-1301,80,636,43,60,28.600000,48.400002,980.270020
16/06/2023,20:39:49.218,-839,-104,-192,-2429,-1407,40,636,43,60,28.600000,48.400002,980.270020
16/06/2023,20:39:49.227,-799,-188,-220,-2332,-1394,12,628,64,34,28.600000,48.400002,980.270020
16/06/2023,20:39:49.237,-778,-207,-179,-2332,-1394,12,625,61,43,28.600000,48.400002,980.270020
16/06/2023,20:39:49.247,-764,-221,-106,-2088,-1293,22,610,73,28,28.600000,48.400002,980.270020
16/06/2023,20:39:49.256,-763,-225,-68,-1881,-1177,33,615,67,16,28.600000,48.400002,980.270020
16/06/2023,20:39:49.265,-788,-264,-83,-1722,-1110,42,607,82,13,28.600000,48.400002,980.270020
16/06/2023,20:39:49.275,-829,-270,-121,-1653,-1094,70,612,73,13,28.600000,48.400002,980.270020
16/06/2023,20:39:49.284,-890,-239,-161,-1665,-1075,122,597,85,3,28.600000,48.400002,980.270020
16/06/2023,20:39:49.294,-877,-183,-168,-1750,-1044,173,591,105,-1,28.600000,48.400002,980.270020
16/06/2023,20:39:49.303,-888,-72,-131,-1803,-963,230,621,108,-6,28.600000,48.400002,980.270020
16/06/2023,20:39:49.312,-888,-72,-131,-1825,-815,366,621,108,-6,28.600000,48.400002,980.270020
16/06/2023,20:39:49.321,-922,52,-123,-1739,-809,302,573,111,-9,28.600000,48.400002,980.270020
16/06/2023,20:39:49.331,-861,174,-127,-1596,-765,330,606,108,-21,28.600000,48.400002,980.270020
16/06/2023,20:39:49.340,-799,300,-96,-1466,-715,341,610,96,-6,28.600000,48.400002,980.270020
16/06/2023,20:39:49.350,-786,356,-47,-1374,-703,297,604,111,-34,28.600000,48.400002,980.270020
16/06/2023,20:39:49.359,-710,369,-52,-1283,-644,314,589,123,-9,28.600000,48.400002,980.270020
16/06/2023,20:39:49.368,-667,383,-79,-1169,-537,291,592,135,-33,28.600000,48.400002,980.270020
16/06/2023,20:39:49.378,-707,352,-94,-1081,-454,274,589,130,-46,28.600000,48.400002,980.270020
16/06/2023,20:39:49.387,-718,288,-107,-1057,-382,267,564,139,-30,28.600000,48.400002,980.270020
16/06/2023,20:39:49.397,-724,258,-99,-1022,-328,231,579,142,-30,28.600000,48.400002,980.270020
16/06/2023,20:39:49.405,-736,257,-77,-981,-302,200,579,142,-30,28.600000,48.400002,980.270020
16/06/2023,20:39:49.415,-735,278,-52,-979,-263,163,585,144,-34,28.600000,48.400002,980.270020
16/06/2023,20:39:49.425,-714,314,-33,-1012,-205,128,573,132,-46,28.600000,48.400002,980.270020
16/06/2023,20:39:49.434,-713,317,-7,-1060,-165,97,583,148,-58,28.600000,48.400002,980.270020
16/06/2023,20:39:49.443,-723,286,43,-1067,-142,80,576,160,-39,28.600000,48.400002,980.270020
16/06/2023,20:39:49.453,-742,280,120,-945,-151,68,582,166,-30,28.600000,48.400002,980.270020
16/06/2023,20:39:49.466,-786,309,218,-752,-163,71,579,178,-33,28.600000,48.400002,980.270020
16/06/2023,20:39:49.472,-861,305,337,-525,-185,64,559,175,-27,28.600000,48.400002,980.270020
16/06/2023,20:39:49.481,-981,288,497,-283,-193,76,582,166,-40,28.600000,48.400002,980.270020
16/06/2023,20:39:49.490,-1163,307,693,-92,-226,81,582,166,-40,28.600000,48.400002,980.270020
16/06/2023,20:39:49.499,-1326,342,887,30,-282,67,568,172,-60,28.600000,48.400002,980.270020
16/06/2023,20:39:49.509,-1453,340,1012,35,-320,79,576,162,-43,28.600000,48.400002,980.270020
16/06/2023,20:39:49.518,-1453,302,1004,72,-297,117,574,181,-42,28.600000,48.400002,980.270020
16/06/2023,20:39:49.528,-1226,214,886,45,-165,196,555,171,-48,28.600000,48.400002,980.270020
16/06/2023,20:39:49.537,-941,112,703,-72,-22,181,576,177,-40,28.600000,48.400002,980.270020
16/06/2023,20:39:49.546,-819,124,468,-214,21,177,576,166,-42,28.600000,48.400002,980.270020
16/06/2023,20:39:49.556,-1044,293,113,-190,-103,84,565,181,-49,28.600000,48.400002,980.270020
16/06/2023,20:39:49.568,-1376,373,-277,-190,-103,84,580,190,-40,28.600000,48.400002,980.270020
16/06/2023,20:39:49.575,-1550,318,-402,10,187,-42,558,192,-66,28.600000,48.400002,980.270020
16/06/2023,20:39:49.583,-1554,347,-292,462,430,-128,558,192,-66,28.600000,48.400002,980.270020
16/06/2023,20:39:49.593,-1312,369,-81,769,590,-124,583,181,-36,28.600000,48.400002,980.270020
16/06/2023,20:39:49.603,-1082,369,-60,664,594,-176,573,177,-57,28.600000,48.400002,980.270020
16/06/2023,20:39:49.612,-946,469,-231,664,345,-144,574,183,-36,28.600000,48.400002,980.270020
16/06/2023,20:39:49.621,-670,528,-331,903,219,-80,601,181,-49,28.600000,48.400002,980.270020
16/06/2023,20:39:49.631,-429,339,-253,971,382,108,588,163,-54,28.600000,48.400002,980.270020
16/06/2023,20:39:49.640,-368,25,-275,890,654,188,591,177,-37,28.600000,48.400002,980.270020
16/06/2023,20:39:49.650,-411,-143,-437,1107,735,239,589,169,-45,28.600000,48.400002,980.270020
16/06/2023,20:39:49.659,-411,-143,-437,1859,1059,196,589,162,-45,28.600000,48.400002,980.270020
16/06/2023,20:39:49.668,-525,-191,-380,2653,1351,18,616,147,-33,28.600000,48.400002,980.270020
16/06/2023,20:39:49.677,-704,-262,-225,2861,1534,-68,616,147,-33,28.600000,48.400002,980.270020
16/06/2023,20:39:49.686,-914,-262,-172,2688,1676,-116,633,144,-33,28.600000,48.400002,980.270020
16/06/2023,20:39:49.696,-1044,-230,-230,2223,1594,-187,640,142,-45,28.600000,48.400002,980.270020
16/06/2023,20:39:49.706,-1068,-297,-305,1597,1431,-218,627,126,-25,28.600000,48.400002,980.270020
16/06/2023,20:39:49.718,-1080,-346,-353,1012,1547,-123,639,121,-9,28.600000,48.400002,980.270020
16/06/2023,20:39:49.724,-1093,-346,-256,768,1775,9,648,105,6,28.600000,48.400002,980.270020
16/06/2023,20:39:49.734,-1091,-318,-112,787,1728,122,649,112,19,28.600000,48.400002,980.270020
16/06/2023,20:39:49.743,-1031,-302,-40,886,1363,244,663,81,27,28.600000,48.400002,980.270020
16/06/2023,20:39:49.753,-939,-209,-58,844,1190,358,672,97,30,28.600000,48.400002,980.270020
16/06/2023,20:39:49.762,-932,55,-116,632,1286,262,672,85,36,28.600000,48.400002,980.270020
16/06/2023,20:39:49.771,-937,218,-63,326,1236,109,672,85,36,28.600000,48.400002,980.270020
16/06/2023,20:39:49.780,-940,150,1,-37,1003,-14,681,85,52,28.600000,48.400002,980.270020
16/06/2023,20:39:49.790,-938,-19,-67,-301,809,-87,690,102,72,28.600000,48.400002,980.270020
16/06/2023,20:39:49.799,-953,-221,-159,-512,669,-105,690,129,60,28.600000,48.400002,980.270020
16/06/2023,20:39:49.809,-1031,-292,-180,-739,563,-42,687,106,82,28.600000,48.400002,980.270020
16/06/2023,20:39:49.818,-1103,-239,-84,-1083,402,-8,675,127,63,28.600000,48.400002,980.270020
16/06/2023,20:39:49.828,-1075,-109,0,-1352,222,53,682,105,69,28.600000,48.400002,980.270020
16/06/2023,20:39:49.837,-961,81,36,-1269,248,152,691,120,85,28.600000,48.400002,980.270020
16/06/2023,20:39:49.846,-877,183,58,-803,352,209,705,138,91,28.600000,48.400002,980.270020
16/06/2023,20:39:49.856,-866,136,-6,-257,423,219,688,136,81,28.600000,48.400002,980.270020
16/06/2023,20:39:49.864,-871,92,-92,204,540,290,688,136,81,28.600000,48.400002,980.270020
16/06/2023,20:39:49.874,-852,73,-117,454,615,339,682,147,88,28.600000,48.400002,980.270020
16/06/2023,20:39:49.884,-845,41,-136,426,666,350,682,147,88,28.600000,48.400002,980.270020
16/06/2023,20:39:49.893,-841,63,-165,271,647,307,681,118,82,28.600000,48.400002,980.270020
16/06/2023,20:39:49.902,-822,109,-164,110,593,225,706,129,112,28.600000,48.400002,980.270020
16/06/2023,20:39:49.912,-812,127,-181,52,565,146,696,114,112,28.600000,48.400002,980.270020
16/06/2023,20:39:49.921,-821,84,-220,108,590,111,694,138,121,28.600000,48.400002,980.270020
16/06/2023,20:39:49.931,-851,28,-232,108,590,111,688,126,117,28.600000,48.400002,980.270020
16/06/2023,20:39:49.941,-904,-8,-197,220,621,95,688,126,117,28.600000,48.799999,980.270020
16/06/2023,20:39:49.949,-965,8,-161,275,684,73,702,129,136,28.600000,48.799999,980.289978
16/06/2023,20:39:49.958,-1021,63,-109,214,709,79,691,115,135,28.600000,48.799999,980.289978
16/06/2023,20:39:49.968,-1077,92,-95,125,657,71,715,123,129,28.600000,48.799999,980.289978
16/06/2023,20:39:49.977,-1135,96,-125,135,597,69,703,135,127,28.600000,48.799999,980.289978
16/06/2023,20:39:49.987,-1200,100,-128,215,536,60,706,129,142,28.600000,48.799999,980.289978
16/06/2023,20:39:49.996,-1200,110,-73,254,481,45,702,130,142,28.600000,48.799999,980.289978
16/06/2023,20:39:50.006,-1246,110,-73,158,400,13,696,136,144,28.600000,48.799999,980.289978
16/06/2023,20:39:50.015,-1258,116,5,-14,334,-23,702,133,151,28.600000,48.799999,980.289978
16/06/2023,20:39:50.027,-1239,103,64,-170,238,-59,697,129,169,28.600000,48.799999,980.289978
16/06/2023,20:39:50.034,-1215,29,66,-250,110,-105,706,129,186,28.600000,48.799999,980.289978
16/06/2023,20:39:50.042,-1215,-74,-2,-265,-30,-149,706,129,186,28.600000,48.799999,980.289978
16/06/2023,20:39:50.052,-1212,-144,-65,-298,-145,-171,703,141,171,28.600000,48.799999,980.289978
16/06/2023,20:39:50.062,-1230,-188,-69,-281,-174,-142,714,133,165,28.600000,48.799999,980.289978
16/06/2023,20:39:50.071,-1281,-184,12,-203,-135,-92,697,138,180,28.600000,48.799999,980.289978
16/06/2023,20:39:50.080,-1324,-104,140,-129,-111,-84,694,144,187,28.600000,48.799999,980.289978
16/06/2023,20:39:50.090,-1344,-57,284,-157,-236,-104,711,130,178,28.600000,48.799999,980.289978
16/06/2023,20:39:50.099,-1505,-143,233,-206,-220,-115,702,147,172,28.600000,48.799999,980.289978
16/06/2023,20:39:50.109,-1661,-269,86,-83,-234,-69,708,139,186,28.600000,48.799999,980.289978
16/06/2023,20:39:50.118,-1626,-295,177,2,-429,-40,709,148,180,28.600000,48.799999,980.289978
16/06/2023,20:39:50.127,-1553,-110,364,-128,-619,-39,694,157,184,28.600000,48.799999,980.289978
16/06/2023,20:39:50.136,-1471,215,331,-245,-961,-198,694,157,184,28.600000,48.799999,980.289978
16/06/2023,20:39:50.145,-1341,424,127,-441,-1222,-434,703,159,174,28.600000,48.799999,980.289978
16/06/2023,20:39:50.155,-1244,412,25,-730,-1432,-627,697,162,174,28.600000,48.799999,980.289978
16/06/2023,20:39:50.165,-1178,126,-133,-922,-1513,-618,678,166,147,28.600000,48.799999,980.289978
16/06/2023,20:39:50.174,-1126,-225,-314,-825,-1523,-606,687,169,144,28.600000,48.799999,980.289978
16/06/2023,20:39:50.184,-1139,-310,-383,-554,-1565,-523,678,181,144,28.600000,48.799999,980.289978
16/06/2023,20:39:50.193,-1148,-165,-483,-58,-1482,-385,697,180,138,28.600000,48.799999,980.289978
16/06/2023,20:39:50.202,-1161,-51,-612,582,-1351,-251,667,165,142,28.600000,48.799999,980.289978
16/06/2023,20:39:50.212,-1141,-110,-665,1212,-1089,-89,688,181,120,28.600000,48.799999,980.289978
16/06/2023,20:39:50.221,-1128,-81,-571,1396,-645,103,679,162,112,28.600000,48.799999,980.289978
16/06/2023,20:39:50.230,-1170,46,-507,366,-386,160,679,162,112,28.600000,48.799999,980.289978
16/06/2023,20:39:50.239,-1278,42,-445,-848,-763,210,687,183,123,28.600000,48.799999,980.289978
16/06/2023,20:39:50.249,-1270,-13,-292,-1269,-1245,318,685,169,94,28.600000,48.799999,980.289978
16/06/2023,20:39:50.259,-1173,12,-169,-1605,-1291,353,687,175,91,28.600000,48.799999,980.289978
16/06/2023,20:39:50.268,-1135,64,-155,-1884,-1296,438,693,175,70,28.600000,48.799999,980.289978
16/06/2023,20:39:50.277,-1020,51,-185,-1884,-1296,438,670,187,100,28.600000,48.799999,980.289978
16/06/2023,20:39:50.287,-949,31,-179,-2033,-1388,441,684,177,82,28.600000,48.799999,980.289978
16/06/2023,20:39:50.296,-900,50,-196,-2114,-1403,325,667,198,93,28.600000,48.799999,980.289978
16/06/2023,20:39:50.305,-835,33,-228,-2115,-1540,161,669,180,58,28.600000,48.799999,980.289978
16/06/2023,20:39:50.315,-794,-10,-270,-2102,-1517,89,670,232,63,28.600000,48.799999,980.289978
16/06/2023,20:39:50.323,-794,-10,-270,-2154,-1532,25,670,232,63,28.600000,48.799999,980.289978
16/06/2023,20:39:50.333,-755,25,-275,-2023,-1569,-56,661,184,64,28.600000,48.799999,980.289978
16/06/2023,20:39:50.343,-710,64,-223,-1663,-1471,-144,651,222,42,28.600000,48.799999,980.289978
16/06/2023,20:39:50.352,-656,44,-186,-1331,-1320,-171,646,213,45,28.600000,48.799999,980.289978
16/06/2023,20:39:50.362,-626,-6,-148,-1055,-1123,-207,652,235,52,28.600000,48.799999,980.289978
16/06/2023,20:39:50.374,-593,-136,-121,-942,-969,-309,657,225,45,28.600000,48.799999,980.289978
16/06/2023,20:39:50.380,-625,-184,-166,-953,-922,-247,627,246,45,28.600000,48.799999,980.289978
16/06/2023,20:39:50.390,-677,-136,-223,-1064,-832,-182,628,238,43,28.600000,48.799999,980.289978
16/06/2023,20:39:50.399,-689,-105,-231,-1200,-743,-124,642,262,31,28.600000,48.799999,980.289978
16/06/2023,20:39:50.408,-689,-23,-243,-1266,-716,-49,636,255,48,28.600000,48.799999,980.289978
16/06/2023,20:39:50.417,-640,52,-241,-1280,-675,-1,636,255,48,28.600000,48.799999,980.289978
16/06/2023,20:39:50.427,-634,155,-233,-1226,-617,24,640,265,63,28.600000,48.799999,980.289978
16/06/2023,20:39:50.437,-634,250,-227,-1057,-528,78,640,265,63,28.600000,48.799999,980.289978
16/06/2023,20:39:50.446,-597,293,-178,-823,-394,124,621,268,46,28.600000,48.799999,980.289978
16/06/2023,20:39:50.455,-594,304,-117,-581,-290,178,625,273,19,28.600000,48.799999,980.289978
16/06/2023,20:39:50.465,-604,247,-65,-375,-224,242,633,277,49,28.600000,48.799999,980.289978
16/06/2023,20:39:50.474,-599,213,-16,-200,-176,277,612,273,54,28.600000,48.799999,980.289978
16/06/2023,20:39:50.483,-586,182,51,-84,-135,284,615,297,36,28.600000,48.799999,980.289978
16/06/2023,20:39:50.493,-612,144,102,-64,-96,308,634,289,4,28.600000,48.799999,980.289978
16/06/2023,20:39:50.502,-647,149,133,-24,-29,327,634,277,37,28.600000,48.799999,980.289978
16/06/2023,20:39:50.511,-673,188,173,21,56,344,634,277,37,28.600000,48.799999,980.289978
16/06/2023,20:39:50.520,-730,222,210,56,151,328,648,285,48,28.600000,48.799999,980.289978
16/06/2023,20:39:50.530,-821,225,289,63,248,284,625,277,51,28.600000,48.799999,980.289978
16/06/2023,20:39:50.540,-959,198,423,-46,220,218,649,277,48,28.600000,48.799999,980.289978
16/06/2023,20:39:50.549,-1115,198,603,-222,137,222,633,294,39,28.600000,48.799999,980.289978
16/06/2023,20:39:50.558,-1233,218,757,-394,2,189,630,285,55,28.600000,48.799999,980.289978
16/06/2023,20:39:50.568,-1158,127,804,-533,-187,188,636,268,60,28.600000,48.799999,980.289978
16/06/2023,20:39:50.577,-1348,75,941,-568,-440,167,637,280,57,28.600000,48.799999,980.289978
16/06/2023,20:39:50.586,-1623,125,1016,-376,-670,108,646,265,54,28.600000,48.799999,980.289978
16/06/2023,20:39:50.596,-1523,142,994,8,-728,117,631,282,64,28.600000,48.799999,980.289978
16/06/2023,20:39:50.605,-1212,152,951,194,-621,32,631,282,64,28.600000,48.799999,980.289978
16/06/2023,20:39:50.614,-787,169,732,43,-375,-65,634,268,43,28.600000,48.799999,980.289978
16/06/2023,20:39:50.624,-495,182,410,43,-375,-65,633,265,49,28.600000,48.799999,980.289978
16/06/2023,20:39:50.633,-346,173,60,-352,-71,-26,619,276,58,28.600000,48.799999,980.289978
16/06/2023,20:39:50.643,-441,219,-151,-701,195,94,636,285,55,28.600000,48.799999,980.289978
16/06/2023,20:39:50.652,-836,380,-370,-789,247,218,621,270,55,28.600000,48.799999,980.289978
16/06/2023,20:39:50.661,-1339,531,-612,-478,179,151,646,288,66,28.600000,48.799999,980.289978
16/06/2023,20:39:50.671,-1785,596,-511,231,766,-1,655,279,66,28.600000,48.799999,980.289978
16/06/2023,20:39:50.680,-1956,588,-72,1061,1043,-247,633,298,82,28.600000,48.799999,980.289978
16/06/2023,20:39:50.689,-1956,588,-72,1515,802,-329,651,283,60,28.600000,48.799999,980.289978
16/06/2023,20:39:50.698,-1723,512,327,1223,373,-307,651,283,60,28.600000,48.799999,980.289978
16/06/2023,20:39:50.708,-1485,545,351,977,74,-242,646,280,55,28.600000,48.799999,980.289978
16/06/2023,20:39:50.718,-1167,514,0,628,365,-29,642,283,52,28.600000,48.799999,980.289978
16/06/2023,20:39:50.727,-729,253,-413,455,920,267,658,270,58,28.600000,48.799999,980.289978
16/06/2023,20:39:50.736,-464,-3,-633,1130,1111,409,633,273,57,28.600000,48.799999,980.289978
16/06/2023,20:39:50.746,-328,-221,-569,2040,1005,391,645,273,70,28.600000,48.799999,980.289978
16/06/2023,20:39:50.755,-356,-294,-397,2521,988,266,675,252,58,28.600000,48.799999,980.289978
16/06/2023,20:39:50.764,-465,-238,-263,2713,1058,58,652,237,69,28.600000,48.799999,980.289978
16/06/2023,20:39:50.774,-658,-279,-215,2762,1476,-120,658,243,45,28.600000,48.799999,980.289978
16/06/2023,20:39:50.783,-1004,-445,-300,2811,1848,-190,681,244,67,28.600000,48.799999,980.289978
16/06/2023,20:39:50.792,-1254,-549,-364,2570,1855,-234,681,244,67,28.600000,48.799999,980.289978
16/06/2023,20:39:50.801,-1264,-481,-276,2131,1831,-257,687,223,66,28.600000,48.799999,980.289978
16/06/2023,20:39:50.811,-1165,-307,-101,1828,1822,-161,691,217,97,28.600000,48.799999,980.289978
16/06/2023,20:39:50.821,-1028,-185,42,1603,1709,21,687,205,84,28.600000,48.799999,980.289978
16/06/2023,20:39:50.830,-960,-123,85,1172,1483,130,684,222,118,28.600000,48.799999,980.289978
16/06/2023,20:39:50.839,-901,-61,-19,771,1190,221,694,198,88,28.600000,48.799999,980.289978
16/06/2023,20:39:50.849,-824,-2,-127,538,984,311,706,195,105,28.600000,48.799999,980.289978
16/06/2023,20:39:50.858,-845,127,-134,420,837,262,711,190,118,28.600000,48.799999,980.289978
16/06/2023,20:39:50.867,-874,224,-142,290,885,130,708,181,121,28.600000,48.799999,980.289978
16/06/2023,20:39:50.877,-918,217,-44,299,874,58,717,190,127,28.600000,48.799999,980.289978
16/06/2023,20:39:50.886,-914,128,-73,603,783,76,717,190,127,28.600000,48.799999,980.289978
16/06/2023,20:39:50.895,-918,-79,-211,790,1080,35,697,181,133,28.600000,48.799999,980.289978
16/06/2023,20:39:50.905,-1005,-230,-191,567,1059,-4,720,169,145,28.600000,48.799999,980.289978
16/06/2023,20:39:50.914,-1058,-256,-140,190,800,-3,712,178,138,28.600000,48.799999,980.289978
16/06/2023,20:39:50.924,-1080,-270,-31,-97,566,30,711,172,153,28.600000,48.799999,980.289978
16/06/2023,20:39:50.933,-1061,-185,18,-196,450,100,705,177,151,28.600000,48.799999,980.289978
16/06/2023,20:39:50.942,-998,-11,18,-89,444,145,718,169,154,28.600000,48.799999,980.289978
16/06/2023,20:39:50.952,-928,92,-3,157,426,139,718,186,160,28.600000,48.799999,980.289978
16/06/2023,20:39:50.961,-887,89,-71,157,426,139,714,165,183,28.600000,48.799999,980.289978
16/06/2023,20:39:50.971,-843,7,-129,360,455,155,718,159,147,28.600000,48.799999,980.289978
16/06/2023,20:39:50.979,-839,-27,-148,449,532,175,718,159,147,28.600000,48.799999,980.289978
16/06/2023,20:39:50.989,-852,-26,-176,491,633,207,712,177,184,28.600000,49.000000,980.119995
16/06/2023,20:39:50.999,-892,-22,-174,527,625,166,712,177,177,28.600000,49.000000,980.119995
16/06/2023,20:39:51.008,-942,-11,-105,479,619,161,729,148,193,28.600000,49.000000,980.119995
16/06/2023,20:39:51.017,-910,2,-128,397,543,149,714,165,178,28.600000,49.000000,980.119995
16/06/2023,20:39:51.027,-865,52,-189,296,479,104,717,166,187,28.600000,49.000000,980.119995
16/06/2023,20:39:51.036,-865,52,-189,246,482,68,705,168,195,28.600000,49.000000,980.119995
16/06/2023,20:39:51.045,-875,72,-183,195,519,24,726,139,190,28.600000,49.000000,980.119995
16/06/2023,20:39:51.055,-908,80,-178,99,546,0,718,139,183,28.600000,49.000000,980.119995
16/06/2023,20:39:51.064,-947,90,-176,61,594,-2,712,169,193,28.600000,49.000000,980.119995
16/06/2023,20:39:51.073,-996,51,-177,116,613,-4,712,169,193,28.600000,49.000000,980.119995
16/06/2023,20:39:51.082,-1059,-4,-172,207,617,11,706,145,186,28.600000,49.000000,980.119995
16/06/2023,20:39:51.092,-1152,-17,-131,252,551,9,736,123,196,28.600000,49.000000,980.119995
16/06/2023,20:39:51.102,-1210,0,-81,271,472,17,732,144,210,28.600000,49.000000,980.119995
16/06/2023,20:39:51.111,-1176,-3,10,256,321,13,726,142,193,28.600000,49.000000,980.119995
16/06/2023,20:39:51.120,-1134,4,75,274,223,42,738,156,214,28.600000,49.000000,980.119995
16/06/2023,20:39:51.130,-1137,-15,36,403,117,44,717,133,199,28.600000,49.000000,980.119995
16/06/2023,20:39:51.142,-1170,-133,-4,517,-32,41,723,127,211,28.600000,49.000000,980.119995
16/06/2023,20:39:51.149,-1218,-225,28,414,-225,42,706,147,204,28.600000,49.000000,980.119995
16/06/2023,20:39:51.157,-1251,-215,114,350,-351,9,706,147,204,28.600000,49.000000,980.119995
16/06/2023,20:39:51.167,-1297,-205,173,277,-417,80,715,133,189,28.600000,49.000000,980.119995
16/06/2023,20:39:51.177,-1292,-155,246,137,-460,103,741,132,201,28.600000,49.000000,980.119995
16/06/2023,20:39:51.186,-1242,-28,369,155,-507,91,727,124,186,28.600000,49.000000,980.119995
16/06/2023,20:39:51.195,-1225,30,503,210,-618,40,718,108,187,28.600000,49.000000,980.119995
16/06/2023,20:39:51.205,-1332,18,400,268,-690,-27,724,126,175,28.600000,49.000000,980.119995
16/06/2023,20:39:51.214,-1523,-43,145,501,-700,-33,718,115,159,28.600000,49.000000,980.119995
16/06/2023,20:39:51.223,-1638,-83,148,518,-1097,-82,739,118,162,28.600000,49.000000,980.119995
16/06/2023,20:39:51.233,-1646,-10,183,186,-1252,-233,729,123,150,28.600000,49.000000,980.119995
16/06/2023,20:39:51.242,-1520,-10,62,-313,-1314,-258,717,130,142,28.600000,49.000000,980.119995
16/06/2023,20:39:51.251,-1423,76,-50,-814,-1534,-278,717,130,142,28.600000,49.000000,980.119995
16/06/2023,20:39:51.260,-1319,146,-220,-802,-1735,-312,726,136,111,28.600000,49.000000,980.119995
16/06/2023,20:39:51.270,-1240,-39,-504,-552,-1747,-280,721,138,109,28.600000,49.000000,980.119995
16/06/2023,20:39:51.280,-1375,-9,-711,-219,-1652,-193,732,130,90,28.600000,49.000000,980.119995
16/06/2023,20:39:51.292,-1451,205,-802,110,-1685,-73,717,132,96,28.600000,49.000000,980.119995
16/06/2023,20:39:51.298,-1414,402,-737,413,-1415,-15,697,117,85,28.600000,49.000000,980.119995
16/06/2023,20:39:51.308,-1434,499,-532,413,-1415,-15,708,135,61,28.600000,49.000000,980.119995
16/06/2023,20:39:51.317,-1465,402,-387,728,-1106,76,699,120,39,28.600000,49.000000,980.119995
16/06/2023,20:39:51.327,-1487,331,-268,1246,-1202,109,684,108,49,28.600000,49.000000,980.119995
16/06/2023,20:39:51.336,-1424,220,-396,1457,-1067,215,672,105,30,28.600000,49.000000,980.119995
16/06/2023,20:39:51.345,-1419,55,-417,218,-737,367,672,105,30,28.600000,49.000000,980.119995
16/06/2023,20:39:51.354,-1375,2,-202,-1811,-981,546,685,109,19,28.600000,49.000000,980.119995
16/06/2023,20:39:51.364,-1102,83,-156,-2382,-1796,598,678,108,6,28.600000,49.000000,980.119995
16/06/2023,20:39:51.373,-897,238,-112,-1888,-1751,469,660,117,-6,28.600000,49.000000,980.119995
16/06/2023,20:39:51.383,-897,238,-112,-1413,-1608,240,664,115,3,28.600000,49.000000,980.119995
16/06/2023,20:39:51.392,-782,292,-180,-1183,-1588,34,673,118,-1,28.600000,49.000000,980.119995
16/06/2023,20:39:51.402,-704,235,-270,-1216,-1510,-132,648,123,-31,28.600000,49.000000,980.119995
16/06/2023,20:39:51.411,-672,185,-327,-1300,-1564,-199,631,144,-33,28.600000,49.000000,980.119995
16/06/2023,20:39:51.420,-673,173,-384,-1213,-1556,-256,621,150,-42,28.600000,49.000000,980.119995
16/06/2023,20:39:51.430,-644,104,-327,-1101,-1418,-401,616,156,-40,28.600000,49.000000,980.119995
16/06/2023,20:39:51.438,-579,41,-251,-919,-1314,-466,616,156,-40,28.600000,49.000000,980.119995
16/06/2023,20:39:51.448,-558,27,-230,-734,-1093,-485,594,169,-51,28.600000,49.000000,980.119995
16/06/2023,20:39:51.458,-543,14,-203,-519,-992,-402,607,169,-51,28.600000,49.000000,980.119995
16/06/2023,20:39:51.467,-551,-24,-179,-387,-918,-291,601,180,-87,28.600000,49.000000,980.119995
16/06/2023,20:39:51.476,-564,-45,-193,-447,-815,-191,597,183,-81,28.600000,49.000000,980.119995
16/06/2023,20:39:51.486,-541,-33,-207,-573,-662,-172,600,166,-69,28.600000,49.000000,980.119995
16/06/2023,20:39:51.495,-526,-9,-215,-653,-532,-123,600,181,-75,28.600000,49.000000,980.119995
16/06/2023,20:39:51.505,-534,21,-226,-638,-413,-70,591,172,-64,28.600000,49.000000,980.119995
16/06/2023,20:39:51.514,-497,54,-227,-574,-255,-10,597,183,-75,28.600000,49.000000,980.119995
16/06/2023,20:39:51.523,-464,106,-178,-435,-114,30,598,177,-72,28.600000,49.000000,980.119995
16/06/2023,20:39:51.532,-496,165,-112,-242,-25,60,598,177,-72,28.600000,49.000000,980.119995
16/06/2023,20:39:51.542,-550,192,-48,-59,28,106,585,184,-78,28.600000,49.000000,980.119995
16/06/2023,20:39:51.551,-594,168,-4,115,102,198,577,202,-73,28.600000,49.000000,980.119995
16/06/2023,20:39:51.561,-606,143,0,308,200,294,601,183,-76,28.600000,49.000000,980.119995
16/06/2023,20:39:51.570,-597,143,32,513,302,375,583,187,-61,28.600000,49.000000,980.119995
16/06/2023,20:39:51.580,-591,161,100,750,366,441,586,184,-64,28.600000,49.000000,980.119995
16/06/2023,20:39:51.589,-594,186,195,1036,422,483,583,181,-82,28.600000,49.000000,980.119995
16/06/2023,20:39:51.598,-599,197,298,1294,495,497,586,178,-67,28.600000,49.000000,980.119995
16/06/2023,20:39:51.608,-615,202,375,1468,607,447,603,157,-72,28.600000,49.000000,980.119995
16/06/2023,20:39:51.616,-672,172,450,1498,723,390,603,157,-72,28.600000,49.000000,980.119995
16/06/2023,20:39:51.626,-766,109,522,1328,775,339,606,150,-64,28.600000,49.000000,980.119995
16/06/2023,20:39:51.636,-885,63,587,1030,770,280,606,133,-61,28.600000,49.000000,980.119995
16/06/2023,20:39:51.645,-1065,45,633,628,717,281,613,135,-52,28.600000,49.000000,980.119995
16/06/2023,20:39:51.654,-1219,47,643,628,717,281,598,148,-57,28.600000,49.000000,980.119995
16/06/2023,20:39:51.664,-1354,46,626,287,593,275,612,121,-57,28.600000,49.000000,980.119995
16/06/2023,20:39:51.673,-1525,39,616,47,406,281,618,117,-66,28.600000,49.000000,980.119995
16/06/2023,20:39:51.683,-1601,30,720,-9,253,296,630,112,-51,28.600000,49.000000,980.119995
16/06/2023,20:39:51.692,-1532,51,816,164,61,282,628,118,-46,28.600000,49.000000,980.119995
16/06/2023,20:39:51.701,-1334,117,767,397,-190,197,609,93,-69,28.600000,49.000000,980.119995
16/06/2023,20:39:51.710,-1334,117,767,571,-276,30,609,93,-69,28.600000,49.000000,980.119995
16/06/2023,20:39:51.719,-1093,180,647,653,-189,-106,625,90,-73,28.600000,49.000000,980.119995
16/06/2023,20:39:51.729,-907,224,510,632,-120,-173,616,114,-45,28.600000,49.000000,980.119995
16/06/2023,20:39:51.739,-773,274,346,513,-198,-140,610,102,-64,28.600000,49.000000,980.119995
16/06/2023,20:39:51.748,-729,399,188,281,-289,-129,604,111,-54,28.600000,49.000000,980.119995
16/06/2023,20:39:51.758,-937,624,-116,305,-151,-333,606,90,-52,28.600000,49.000000,980.119995
16/06/2023,20:39:51.767,-1318,727,-509,691,252,-494,607,111,-46,28.600000,49.000000,980.119995
16/06/2023,20:39:51.776,-1783,597,-336,1029,427,-412,613,88,-52,28.600000,49.000000,980.119995
16/06/2023,20:39:51.786,-2161,364,102,1107,106,-320,619,97,-66,28.600000,49.000000,980.119995
16/06/2023,20:39:51.795,-2020,97,169,1122,-85,-203,618,99,-46,28.600000,49.000000,980.119995
16/06/2023,20:39:51.804,-1469,-96,-29,1284,144,62,618,99,-46,28.600000,49.000000,980.119995
16/06/2023,20:39:51.813,-881,-207,-316,1075,522,307,627,81,-48,28.600000,49.000000,980.119995
16/06/2023,20:39:51.823,-466,-250,-530,1008,695,392,601,72,-34,28.600000,49.000000,980.119995
16/06/2023,20:39:51.832,-290,-189,-511,1659,675,259,622,73,-43,28.600000,49.000000,980.119995
16/06/2023,20:39:51.842,-295,-54,-295,2181,603,28,634,61,-25,28.600000,49.000000,980.119995
16/06/2023,20:39:51.851,-478,68,-139,2235,708,-221,636,46,-30,28.600000,49.000000,980.119995
16/06/2023,20:39:51.861,-775,-8,-194,2230,981,-411,652,31,-24,28.600000,49.000000,980.119995
16/06/2023,20:39:51.870,-1017,-271,-375,2386,1281,-324,657,33,0,28.600000,49.000000,980.119995
16/06/2023,20:39:51.879,-1129,-448,-446,2484,1476,-117,649,19,10,28.600000,49.000000,980.119995
16/06/2023,20:39:51.889,-1154,-481,-336,2495,1748,22,657,12,15,28.600000,49.000000,980.119995
16/06/2023,20:39:51.897,-1172,-418,-155,2515,1918,146,657,12,15,28.600000,49.000000,980.119995
16/06/2023,20:39:51.907,-1166,-271,-44,2561,1801,236,664,-13,22,28.600000,49.000000,980.119995
16/06/2023,20:39:51.917,-1131,-110,-18,2375,1486,207,691,-15,40,28.600000,49.000000,980.119995
16/06/2023,20:39:51.926,-1026,110,-86,1801,1135,223,661,-55,61,28.600000,49.000000,980.119995
16/06/2023,20:39:51.936,-894,241,-180,1314,968,281,687,-24,63,28.600000,49.000000,980.119995
16/06/2023,20:39:51.945,-788,231,-258,1103,982,266,681,-24,78,28.600000,49.000000,980.119995
16/06/2023,20:39:51.954,-719,196,-292,1103,969,154,675,-30,78,28.600000,49.000000,980.119995
16/06/2023,20:39:51.964,-734,87,-298,1002,990,40,684,-45,88,28.600000,49.000000,980.119995
16/06/2023,20:39:51.973,-900,-38,-276,1002,990,40,682,-48,102,28.600000,49.000000,980.119995
16/06/2023,20:39:51.982,-1018,-102,-261,990,922,36,670,-39,91,28.600000,49.000000,980.119995
16/06/2023,20:39:51.991,-1010,-152,-218,1141,793,95,670,-39,91,28.600000,49.000000,980.119995
16/06/2023,20:39:52.001,-1033,-195,-150,1141,793,95,676,-37,147,28.600000,49.000000,980.119995
16/06/2023,20:39:52.010,-1023,-205,-174,1342,785,149,676,-37,147,28.600000,49.000000,980.119995
16/06/2023,20:39:52.020,-1014,-187,-148,1352,779,219,700,-37,139,28.600000,49.000000,980.119995
16/06/2023,20:39:52.029,-1009,-158,-114,1195,686,223,681,-58,160,28.299999,48.500000,980.419983
16/06/2023,20:39:52.039,-1016,-174,-130,949,547,184,679,-66,151,28.299999,48.500000,980.419983
16/06/2023,20:39:52.048,-1009,-203,-148,752,423,122,703,-64,157,28.299999,48.500000,980.419983
16/06/2023,20:39:52.057,-970,-175,-154,702,334,128,690,-64,168,28.299999,48.500000,980.419983
16/06/2023,20:39:52.066,-970,-175,-154,833,332,145,690,-64,168,28.299999,48.500000,980.419983
16/06/2023,20:39:52.075,-948,-104,-137,990,351,181,693,-63,166,28.299999,48.500000,980.419983
16/06/2023,20:39:52.085,-940,-57,-87,1010,334,166,693,-57,174,28.299999,48.500000,980.419983
16/06/2023,20:39:52.095,-952,-49,-58,901,243,125,676,-81,171,28.299999,48.500000,980.419983
16/06/2023,20:39:52.104,-970,-84,-81,797,185,107,691,-75,178,28.299999,48.500000,980.419983
16/06/2023,20:39:52.114,-974,-39,-79,807,147,142,700,-75,180,28.299999,48.500000,980.419983
16/06/2023,20:39:52.123,-937,73,-70,976,183,155,682,-69,199,28.299999,48.500000,980.419983
16/06/2023,20:39:52.132,-897,82,-119,1061,249,122,682,-85,202,28.299999,48.500000,980.419983
16/06/2023,20:39:52.142,-902,21,-199,1073,301,133,699,-82,196,28.299999,48.500000,980.419983
16/06/2023,20:39:52.151,-926,-34,-248,1096,365,113,688,-75,220,28.299999,48.500000,980.419983
16/06/2023,20:39:52.160,-957,-69,-239,1086,408,100,688,-75,220,28.299999,48.500000,980.419983
16/06/2023,20:39:52.169,-970,-92,-258,992,343,54,690,-82,219,28.299999,48.500000,980.419983
16/06/2023,20:39:52.179,-1030,-89,-218,836,269,49,678,-75,226,28.299999,48.500000,980.419983
16/06/2023,20:39:52.188,-1134,-43,-98,763,266,55,688,-76,222,28.299999,48.500000,980.419983
16/06/2023,20:39:52.198,-1138,27,-39,732,158,55,685,-85,217,28.299999,48.500000,980.419983
16/06/2023,20:39:52.207,-998,95,-57,778,217,69,681,-70,252,28.299999,48.500000,980.419983
16/06/2023,20:39:52.217,-906,76,-198,1069,398,114,685,-96,234,28.299999,48.500000,980.419983
16/06/2023,20:39:52.226,-1033,-53,-368,1427,380,140,682,-81,246,28.299999,48.500000,980.419983
16/06/2023,20:39:52.235,-1188,-168,-245,1447,241,127,696,-81,243,28.299999,48.500000,980.419983
16/06/2023,20:39:52.245,-1222,-183,-13,1198,86,100,675,-93,250,28.299999,48.500000,980.419983
16/06/2023,20:39:52.253,-1248,-123,45,981,12,112,675,-93,250,28.299999,48.500000,980.419983
16/06/2023,20:39:52.263,-1256,-83,61,868,-99,104,688,-79,270,28.299999,48.500000,980.419983
16/06/2023,20:39:52.273,-1222,-80,108,797,-205,87,682,-82,261,28.299999,48.500000,980.419983
16/06/2023,20:39:52.282,-1202,-50,188,750,-251,74,678,-85,274,28.299999,48.500000,980.419983
16/06/2023,20:39:52.292,-1177,2,252,784,-252,64,678,-84,280,28.299999,48.500000,980.419983
16/06/2023,20:39:52.301,-1133,61,287,861,-246,48,669,-64,271,28.299999,48.500000,980.419983
16/06/2023,20:39:52.310,-1085,94,275,905,-247,16,673,-82,267,28.299999,48.500000,980.419983
16/06/2023,20:39:52.320,-1149,56,153,991,-255,-44,673,-84,258,28.299999,48.500000,980.419983
16/06/2023,20:39:52.329,-1383,-180,-67,991,-255,-44,679,-67,274,28.299999,48.500000,980.419983
16/06/2023,20:39:52.338,-1577,-492,-63,1252,-248,-10,669,-84,283,28.299999,48.500000,980.419983
16/06/2023,20:39:52.347,-1574,-528,188,1271,-288,109,669,-84,283,28.299999,48.500000,980.419983
16/06/2023,20:39:52.357,-1562,-228,314,1012,-522,182,663,-72,291,28.299999,48.500000,980.419983
16/06/2023,20:39:52.367,-1455,230,296,700,-1050,128,676,-67,262,28.299999,48.500000,980.419983
16/06/2023,20:39:52.376,-1232,543,175,268,-1264,39,690,-64,250,28.299999,48.500000,980.419983
16/06/2023,20:39:52.385,-1094,594,-38,-63,-1453,-124,663,-57,261,28.299999,48.500000,980.419983
16/06/2023,20:39:52.395,-1058,498,-210,-141,-1533,-294,672,-73,240,28.299999,48.500000,980.419983
16/06/2023,20:39:52.404,-1147,352,-353,34,-1479,-399,667,-52,261,28.299999,48.500000,980.419983
16/06/2023,20:39:52.413,-1147,321,-353,650,-1791,-429,676,-58,219,28.299999,48.500000,980.419983
16/06/2023,20:39:52.423,-1277,315,-507,1227,-1542,-356,702,-73,219,28.299999,48.500000,980.419983
16/06/2023,20:39:52.431,-1296,322,-617,1295,-1187,-208,702,-73,219,28.299999,48.500000,980.419983
16/06/2023,20:39:52.441,-1258,161,-646,1187,-1037,-100,693,-46,211,28.299999,48.500000,980.419983
16/06/2023,20:39:52.454,-1266,-87,-579,862,-1001,-19,709,-61,222,28.299999,48.500000,980.419983
16/06/2023,20:39:52.460,-1381,-177,-430,403,-1028,245,697,-57,214,28.299999,48.500000,980.419983
16/06/2023,20:39:52.470,-1361,-205,-335,-137,-890,302,699,-69,207,28.299999,48.500000,980.419983
16/06/2023,20:39:52.479,-1321,-233,-251,-903,-1105,378,711,-61,196,28.299999,48.500000,980.419983
16/06/2023,20:39:52.488,-1338,-71,-126,-1310,-1483,403,684,-54,181,28.299999,48.500000,980.419983
16/06/2023,20:39:52.498,-1259,71,-98,-1566,-1811,244,690,-57,180,28.299999,48.500000,980.419983
16/06/2023,20:39:52.507,-1095,193,-172,-1643,-1937,84,685,-54,159,28.299999,48.500000,980.419983
16/06/2023,20:39:52.516,-856,344,-231,-1573,-1883,-37,687,-58,130,28.299999,48.500000,980.419983
16/06/2023,20:39:52.525,-695,344,-289,-1409,-1723,-99,687,-58,130,28.299999,48.500000,980.419983
16/06/2023,20:39:52.535,-583,326,-350,-1156,-1451,-192,697,-69,133,28.299999,48.500000,980.419983
16/06/2023,20:39:52.545,-552,252,-221,-900,-1226,-378,670,-46,96,28.299999,48.500000,980.419983
16/06/2023,20:39:52.554,-598,65,-84,-808,-1174,-419,673,-55,105,28.299999,48.500000,980.419983
16/06/2023,20:39:52.563,-651,-81,-92,-735,-1157,-354,663,-28,94,28.299999,48.500000,980.419983
16/06/2023,20:39:52.573,-673,-184,-85,-653,-1157,-358,661,-48,87,28.299999,48.500000,980.419983
16/06/2023,20:39:52.582,-693,-262,-74,-652,-1155,-393,670,-42,76,28.299999,48.500000,980.419983
