dd/mm/yyyy,hh:mm:ss.ms,accX[mg],accY[mg],accZ[mg],gyroX[mdps],gyroY[mdps],gyroZ[mdps],magX[mG],magY[mG],magZ[mG],T[degC],rH[%],Press[hPa],
16/06/2023,19:05:27.187,-1038,-124,148,-233,-473,-17,673,21,492,0.000000,0.000000,0.000000
16/06/2023,19:05:27.187,-1038,-124,148,-233,-473,-17,673,21,492,0.000000,0.000000,0.000000
16/06/2023,19:05:27.188,-1038,-124,148,-233,-473,-17,673,21,492,0.000000,0.000000,0.000000
16/06/2023,19:05:27.188,-1038,-124,148,-233,-473,-17,673,21,492,0.000000,0.000000,0.000000
16/06/2023,19:05:27.192,-1038,-124,148,-233,-473,-17,673,21,492,0.000000,0.000000,0.000000
16/06/2023,19:05:27.193,-1038,-124,148,-233,-473,-17,673,21,492,0.000000,0.000000,0.000000
16/06/2023,19:05:27.193,-1038,-124,148,-233,-473,-17,673,21,492,0.000000,0.000000,0.000000
16/06/2023,19:05:27.194,-1038,-124,148,-233,-473,-17,673,21,492,0.000000,0.000000,0.000000
16/06/2023,19:05:27.194,-1038,-124,148,-233,-473,-17,673,21,492,0.000000,0.000000,0.000000
16/06/2023,19:05:27.194,-1038,-124,148,-233,-473,-17,673,21,492,0.000000,0.000000,0.000000
16/06/2023,19:05:27.198,-1044,-82,176,-233,-473,-17,673,21,492,0.000000,0.000000,0.000000
16/06/2023,19:05:27.201,-1083,-53,180,-254,-574,13,676,15,507,0.000000,0.000000,0.000000
16/06/2023,19:05:27.211,-1132,-52,187,-305,-556,1,676,-1,489,0.000000,0.000000,0.000000
16/06/2023,19:05:27.220,-1156,-62,198,-353,-535,1,682,-6,462,0.000000,0.000000,0.000000
16/06/2023,19:05:27.229,-1156,-62,198,-381,-520,23,682,-6,462,0.000000,0.000000,0.000000
16/06/2023,19:05:27.238,-1134,-53,231,-455,-558,41,682,-1,460,0.000000,0.000000,0.000000
16/06/2023,19:05:27.248,-1082,-17,251,-540,-620,48,690,-3,468,0.000000,0.000000,0.000000
16/06/2023,19:05:27.257,-1011,30,216,-552,-604,46,699,16,475,0.000000,0.000000,0.000000
16/06/2023,19:05:27.267,-943,69,135,-468,-511,46,697,27,456,0.000000,0.000000,0.000000
16/06/2023,19:05:27.276,-887,84,49,-346,-420,30,682,1,462,0.000000,0.000000,0.000000
16/06/2023,19:05:27.286,-831,79,-19,-244,-342,23,672,1,466,0.000000,0.000000,0.000000
16/06/2023,19:05:27.298,-790,75,-42,-205,-229,-12,706,1,459,0.000000,0.000000,0.000000
16/06/2023,19:05:27.304,-759,87,-27,-192,-151,-35,684,15,478,0.000000,0.000000,0.000000
16/06/2023,19:05:27.313,-746,103,0,-219,-79,-60,684,15,478,0.000000,0.000000,0.000000
16/06/2023,19:05:27.322,-779,114,28,-294,-66,-79,702,-9,457,0.000000,0.000000,0.000000
16/06/2023,19:05:27.332,-842,79,59,-385,-40,-124,705,-3,463,0.000000,0.000000,0.000000
16/06/2023,19:05:27.342,-867,7,84,-429,-51,-118,702,-7,468,0.000000,0.000000,0.000000
16/06/2023,19:05:27.351,-878,-70,82,-405,-53,-97,676,9,474,0.000000,0.000000,0.000000
16/06/2023,19:05:27.360,-919,-125,36,-376,-26,-50,690,-10,472,0.000000,0.000000,0.000000
16/06/2023,19:05:27.370,-954,-147,-21,-302,-11,-36,687,22,462,0.000000,0.000000,0.000000
16/06/2023,19:05:27.379,-948,-169,-35,-189,-5,-6,702,0,465,0.000000,0.000000,0.000000
16/06/2023,19:05:27.389,-946,-171,-16,-76,19,15,697,15,451,0.000000,0.000000,0.000000
16/06/2023,19:05:27.398,-964,-151,35,11,37,18,681,3,460,0.000000,0.000000,0.000000
16/06/2023,19:05:27.407,-973,-108,84,52,41,18,681,3,460,0.000000,0.000000,0.000000
16/06/2023,19:05:27.416,-987,-69,111,61,32,12,678,-1,451,0.000000,0.000000,0.000000
16/06/2023,19:05:27.426,-990,-51,121,53,24,-4,688,6,471,0.000000,0.000000,0.000000
16/06/2023,19:05:27.435,-990,-35,122,45,25,-20,694,6,468,0.000000,0.000000,0.000000
16/06/2023,19:05:27.445,-997,-17,122,52,35,-36,699,1,456,0.000000,0.000000,0.000000
16/06/2023,19:05:27.454,-1006,-4,124,74,44,-50,684,6,456,0.000000,0.000000,0.000000
16/06/2023,19:05:27.464,-1009,8,131,97,46,-54,697,10,462,0.000000,0.000000,0.000000
16/06/2023,19:05:27.473,-1012,21,137,98,43,-51,693,3,457,0.000000,0.000000,0.000000
16/06/2023,19:05:27.482,-1009,29,140,76,43,-51,676,-1,478,0.000000,0.000000,0.000000
16/06/2023,19:05:27.492,-995,34,144,74,43,-50,690,6,483,0.000000,0.000000,0.000000
16/06/2023,19:05:27.500,-985,34,148,29,53,-23,690,6,483,0.000000,0.000000,0.000000
16/06/2023,19:05:27.510,-977,32,150,29,53,-23,681,15,471,0.000000,0.000000,0.000000
16/06/2023,19:05:27.520,-971,32,150,12,59,-15,676,18,478,0.000000,0.000000,0.000000
16/06/2023,19:05:27.529,-972,27,151,2,73,-9,694,6,480,0.000000,0.000000,0.000000
16/06/2023,19:05:27.539,-975,16,148,-2,83,-10,687,3,481,0.000000,0.000000,0.000000
16/06/2023,19:05:27.548,-981,2,145,-4,87,-12,706,10,463,0.000000,0.000000,0.000000
16/06/2023,19:05:27.557,-989,-9,143,-6,86,-13,699,4,462,0.000000,0.000000,0.000000
16/06/2023,19:05:27.567,-991,-13,139,-10,80,-14,696,21,475,0.000000,0.000000,0.000000
16/06/2023,19:05:27.585,-990,-14,130,-21,57,-18,693,6,487,0.000000,0.000000,0.000000
16/06/2023,19:05:27.594,-987,-21,124,-28,45,-17,682,3,457,0.000000,0.000000,0.000000
16/06/2023,19:05:27.604,-977,-29,119,-32,38,-16,693,15,453,0.000000,0.000000,0.000000
16/06/2023,19:05:27.613,-971,-37,115,-34,32,-8,691,3,466,0.000000,0.000000,0.000000
16/06/2023,19:05:27.623,-971,-44,115,-33,31,-4,691,0,460,0.000000,0.000000,0.000000
16/06/2023,19:05:27.632,-974,-50,118,-33,27,-1,684,-6,477,0.000000,0.000000,0.000000
16/06/2023,19:05:27.642,-975,-58,123,-33,20,-1,681,-3,469,0.000000,0.000000,0.000000
16/06/2023,19:05:27.651,-975,-63,130,-36,17,-4,682,21,469,0.000000,0.000000,0.000000
16/06/2023,19:05:27.660,-973,-62,137,-38,13,-7,696,1,466,0.000000,0.000000,0.000000
16/06/2023,19:05:27.670,-972,-58,145,-40,9,-8,669,-3,459,0.000000,0.000000,0.000000
16/06/2023,19:05:27.678,-972,-56,154,-44,6,-8,669,-3,459,0.000000,0.000000,0.000000
16/06/2023,19:05:27.688,-973,-55,162,-49,0,-9,691,13,487,0.000000,0.000000,0.000000
16/06/2023,19:05:27.698,-978,-56,169,-58,-6,-6,702,-1,490,0.000000,0.000000,0.000000
16/06/2023,19:05:27.707,-985,-56,176,-75,-14,-1,679,-6,475,0.000000,0.000000,0.000000
16/06/2023,19:05:27.717,-991,-61,183,-99,-24,5,682,6,474,0.000000,0.000000,0.000000
16/06/2023,19:05:27.726,-996,-67,189,-125,-37,12,697,6,484,0.000000,0.000000,0.000000
16/06/2023,19:05:27.735,-1000,-75,199,-151,-53,18,697,-7,465,0.000000,0.000000,0.000000
16/06/2023,19:05:27.745,-1011,-81,207,-174,-73,23,705,22,468,0.000000,0.000000,0.000000
16/06/2023,19:05:27.754,-1029,-83,210,-191,-99,23,682,18,468,0.000000,0.000000,0.000000
16/06/2023,19:05:27.763,-1051,-82,214,-195,-130,25,682,18,468,0.000000,0.000000,0.000000
16/06/2023,19:05:27.772,-1066,-80,225,-194,-167,28,690,1,468,0.000000,0.000000,0.000000
16/06/2023,19:05:27.782,-1069,-75,245,-190,-209,31,675,-4,478,0.000000,0.000000,0.000000
16/06/2023,19:05:27.791,-1069,-72,264,-189,-251,40,687,7,466,0.000000,0.000000,0.000000
16/06/2023,19:05:27.801,-1071,-83,285,-193,-299,53,702,7,462,0.000000,0.000000,0.000000
16/06/2023,19:05:27.810,-1077,-88,305,-219,-345,74,700,6,471,0.000000,0.000000,0.000000
16/06/2023,19:05:27.820,-1076,-89,315,-232,-392,93,693,9,469,0.000000,0.000000,0.000000
16/06/2023,19:05:27.829,-1085,-83,330,-259,-434,118,681,-1,468,0.000000,0.000000,0.000000
16/06/2023,19:05:27.838,-1137,-39,360,-259,-434,118,675,-9,459,0.000000,0.000000,0.000000
16/06/2023,19:05:27.848,-1165,-11,390,-301,-446,138,691,4,448,0.000000,0.000000,0.000000
16/06/2023,19:05:27.856,-1132,-25,405,-374,-494,142,691,4,448,0.000000,0.000000,0.000000
16/06/2023,19:05:27.866,-1080,-38,401,-387,-597,160,690,-15,453,0.000000,0.000000,0.000000
16/06/2023,19:05:27.876,-1048,-6,365,-382,-710,171,703,-1,441,0.000000,0.000000,0.000000
16/06/2023,19:05:27.885,-1006,56,320,-399,-785,172,711,-21,439,0.000000,0.000000,0.000000
16/06/2023,19:05:27.895,-967,143,276,-426,-829,158,696,-9,418,0.000000,0.000000,0.000000
16/06/2023,19:05:27.904,-1004,224,172,-435,-855,152,687,-13,417,0.000000,0.000000,0.000000
16/06/2023,19:05:27.913,-987,204,223,-423,-859,156,700,-7,423,0.000000,0.000000,0.000000
16/06/2023,19:05:27.923,-987,173,223,-361,-836,149,696,-10,391,0.000000,0.000000,0.000000
16/06/2023,19:05:27.932,-905,169,356,-413,-821,122,703,-18,390,0.000000,0.000000,0.000000
16/06/2023,19:05:27.941,-842,136,335,-497,-788,150,703,-18,390,0.000000,0.000000,0.000000
16/06/2023,19:05:27.950,-772,91,289,-454,-756,166,712,-27,397,0.000000,0.000000,0.000000
16/06/2023,19:05:27.960,-740,90,225,-368,-672,198,705,-18,373,0.000000,0.000000,0.000000
16/06/2023,19:05:27.969,-708,52,192,-276,-577,179,705,-13,385,0.000000,0.000000,0.000000
16/06/2023,19:05:27.979,-665,5,229,-200,-497,153,700,-37,376,0.000000,0.000000,0.000000
16/06/2023,19:05:27.988,-658,-6,291,-159,-391,115,694,-36,376,0.000000,0.000000,0.000000
16/06/2023,19:05:27.998,-671,-12,329,-65,-323,84,706,-34,363,0.000000,0.000000,0.000000
16/06/2023,19:05:28.007,-689,-10,343,26,-246,74,718,-25,351,0.000000,0.000000,0.000000
16/06/2023,19:05:28.016,-722,-27,385,34,-174,52,703,-22,352,0.000000,0.000000,0.000000
16/06/2023,19:05:28.025,-735,-26,388,-11,-149,12,703,-22,352,0.000000,0.000000,0.000000
16/06/2023,19:05:28.034,-752,-6,366,-41,-76,8,696,-39,357,0.000000,0.000000,0.000000
16/06/2023,19:05:28.044,-765,-19,391,-49,-38,31,711,-28,376,0.000000,0.000000,0.000000
16/06/2023,19:05:28.054,-747,-27,420,-74,-5,33,709,-39,351,0.000000,0.000000,0.000000
16/06/2023,19:05:28.063,-736,-28,430,-95,34,24,700,-30,373,0.000000,0.000000,0.000000
16/06/2023,19:05:28.076,-720,-32,429,-117,76,7,706,-33,349,0.000000,0.000000,0.000000
16/06/2023,19:05:28.082,-699,-35,423,-117,120,-4,712,-28,373,0.000000,0.000000,0.000000
16/06/2023,19:05:28.091,-692,-29,428,-102,167,-5,714,-31,358,0.000000,0.000000,0.000000
16/06/2023,19:05:28.101,-705,-23,438,-76,210,-16,702,-34,363,0.000000,0.000000,0.000000
16/06/2023,19:05:28.110,-718,-12,436,-62,245,-30,709,-30,363,0.000000,0.000000,0.000000
16/06/2023,19:05:28.119,-733,0,443,-27,280,-56,709,-30,363,0.000000,0.000000,0.000000
16/06/2023,19:05:28.129,-749,13,454,-4,316,-52,694,-15,370,0.000000,0.000000,0.000000
16/06/2023,19:05:28.138,-759,47,447,14,348,-61,706,-43,376,0.000000,0.000000,0.000000
16/06/2023,19:05:28.147,-784,76,437,33,387,-75,699,-31,391,29.600000,47.200001,979.789978
16/06/2023,19:05:28.157,-853,125,447,17,420,-83,699,-31,391,29.600000,47.200001,979.789978
16/06/2023,19:05:28.166,-902,175,508,-56,413,-80,717,-27,387,29.600000,47.200001,979.789978
16/06/2023,19:05:28.176,-881,155,549,-56,413,-80,699,-34,390,29.600000,47.200001,979.789978
16/06/2023,19:05:28.185,-853,119,527,-122,324,-90,711,-36,405,29.600000,47.200001,979.789978
16/06/2023,19:05:28.194,-869,112,522,-122,263,-147,711,-36,405,29.600000,47.200001,979.789978
16/06/2023,19:05:28.203,-921,105,547,-122,263,-147,703,-24,403,29.600000,47.200001,979.789978
16/06/2023,19:05:28.213,-965,110,575,-95,252,-147,697,-33,399,29.600000,47.200001,979.789978
16/06/2023,19:05:28.222,-963,110,590,-68,219,-131,690,-25,393,29.600000,47.200001,979.789978
16/06/2023,19:05:28.241,-885,193,538,-38,108,-84,691,-24,402,29.600000,47.200001,979.789978
16/06/2023,19:05:28.251,-848,227,485,-34,44,-58,691,-22,402,29.600000,47.200001,979.789978
16/06/2023,19:05:28.260,-828,232,462,-27,2,-35,714,-28,402,29.600000,47.200001,979.789978
16/06/2023,19:05:28.269,-828,232,462,29,-17,-14,703,-31,397,29.600000,47.200001,979.789978
16/06/2023,19:05:28.279,-849,240,471,112,-4,34,705,1,396,29.600000,47.200001,979.789978
16/06/2023,19:05:28.287,-891,232,505,243,2,98,705,1,396,29.600000,47.200001,979.789978
16/06/2023,19:05:28.297,-929,211,538,402,-10,169,708,-40,417,29.600000,47.200001,979.789978
16/06/2023,19:05:28.307,-957,157,516,648,5,233,705,-30,397,29.600000,47.200001,979.789978
16/06/2023,19:05:28.316,-984,72,489,752,4,299,724,-30,411,29.600000,47.200001,979.789978
16/06/2023,19:05:28.325,-1027,55,473,636,35,285,702,-15,406,29.600000,47.200001,979.789978
16/06/2023,19:05:28.335,-998,137,414,535,70,211,702,-31,411,29.600000,47.200001,979.789978
16/06/2023,19:05:28.344,-946,276,432,545,86,160,708,-15,415,29.600000,47.200001,979.789978
16/06/2023,19:05:28.354,-1019,425,495,573,36,84,693,-31,420,29.600000,47.200001,979.789978
16/06/2023,19:05:28.362,-1229,518,550,469,84,0,717,-37,412,29.600000,47.200001,979.789978
16/06/2023,19:05:28.372,-1502,479,586,105,87,-129,717,-37,412,29.600000,47.200001,979.789978
16/06/2023,19:05:28.381,-1671,335,501,-265,109,-193,708,-42,420,29.600000,47.200001,979.789978
16/06/2023,19:05:28.391,-1617,90,463,-396,114,-174,700,-31,415,29.600000,47.200001,979.789978
16/06/2023,19:05:28.400,-1394,-238,434,-221,18,63,696,-33,417,29.600000,47.200001,979.789978
16/06/2023,19:05:28.410,-1078,-462,286,343,-78,199,720,-25,399,29.600000,47.200001,979.789978
16/06/2023,19:05:28.419,-728,-460,61,986,-56,221,706,-61,411,29.600000,47.200001,979.789978
16/06/2023,19:05:28.429,-488,-303,-154,1502,91,225,715,-21,436,29.600000,47.200001,979.789978
16/06/2023,19:05:28.438,-414,-137,-203,1677,367,112,691,-19,409,29.600000,47.200001,979.789978
16/06/2023,19:05:28.450,-448,-45,-153,1557,659,-31,703,-40,415,29.600000,47.200001,979.789978
16/06/2023,19:05:28.457,-552,15,-77,1263,884,-148,697,-15,433,29.600000,47.200001,979.789978
16/06/2023,19:05:28.465,-684,70,8,945,1002,-246,697,-15,433,29.600000,47.200001,979.789978
16/06/2023,19:05:28.475,-784,98,8,683,995,-350,706,-39,451,29.600000,47.200001,979.789978
16/06/2023,19:05:28.485,-832,108,-99,564,964,-472,705,-28,451,29.600000,47.200001,979.789978
16/06/2023,19:05:28.494,-833,66,-219,548,945,-573,703,-28,451,29.600000,47.200001,979.789978
16/06/2023,19:05:28.503,-826,-27,-291,528,938,-617,700,-24,465,29.600000,47.200001,979.789978
16/06/2023,19:05:28.513,-861,-164,-331,367,1022,-614,691,-12,471,29.600000,47.200001,979.789978
16/06/2023,19:05:28.522,-959,-320,-273,62,1141,-526,706,-9,480,29.600000,47.200001,979.789978
16/06/2023,19:05:28.532,-1114,-411,-132,-108,940,-371,702,4,502,29.600000,47.200001,979.789978
16/06/2023,19:05:28.541,-1182,-432,-34,-108,940,-371,678,-4,504,29.600000,47.200001,979.789978
16/06/2023,19:05:28.550,-1137,-473,25,226,643,-296,693,-4,501,29.600000,47.200001,979.789978
16/06/2023,19:05:28.559,-1098,-515,86,642,579,-108,693,-4,501,29.600000,47.200001,979.789978
16/06/2023,19:05:28.568,-1041,-478,77,932,563,56,678,6,516,29.600000,47.200001,979.789978
16/06/2023,19:05:28.578,-917,-320,50,961,518,84,678,-7,517,29.600000,47.200001,979.789978
16/06/2023,19:05:28.588,-814,-92,-1,921,530,17,681,19,535,29.600000,47.200001,979.789978
16/06/2023,19:05:28.597,-785,55,-90,886,606,-70,688,24,529,29.600000,47.200001,979.789978
16/06/2023,19:05:28.607,-778,94,-121,1023,697,-158,693,16,531,29.600000,47.200001,979.789978
16/06/2023,19:05:28.616,-778,94,-121,1215,686,-243,687,30,517,29.600000,47.200001,979.789978
16/06/2023,19:05:28.625,-787,88,-184,1284,654,-302,672,33,547,29.600000,47.200001,979.789978
16/06/2023,19:05:28.635,-837,40,-242,1238,755,-287,673,24,546,29.600000,47.200001,979.789978
16/06/2023,19:05:28.644,-947,-43,-250,1098,907,-177,678,43,546,29.600000,47.200001,979.789978
16/06/2023,19:05:28.653,-1140,-134,-218,981,1043,160,678,43,546,29.600000,47.200001,979.789978
16/06/2023,19:05:28.662,-1343,-218,-143,959,968,628,661,40,562,29.600000,47.200001,979.789978
16/06/2023,19:05:28.672,-1413,-224,-47,975,789,768,682,43,570,29.600000,47.200001,979.789978
16/06/2023,19:05:28.682,-1253,-264,44,947,582,513,666,39,573,29.600000,47.200001,979.789978
16/06/2023,19:05:28.691,-1030,-367,82,799,490,278,652,40,580,29.600000,47.200001,979.789978
16/06/2023,19:05:28.700,-915,-422,92,534,555,154,654,42,589,29.600000,47.200001,979.789978
16/06/2023,19:05:28.710,-893,-423,96,205,667,91,658,46,582,29.600000,47.200001,979.789978
16/06/2023,19:05:28.719,-909,-372,65,-21,642,100,645,33,597,29.600000,47.200001,979.789978
16/06/2023,19:05:28.728,-904,-300,-8,-82,605,139,651,19,601,29.600000,47.200001,979.789978
16/06/2023,19:05:28.738,-887,-241,-85,-4,578,177,666,28,597,29.600000,47.200001,979.789978
16/06/2023,19:05:28.746,-871,-199,-158,190,550,223,666,28,597,29.600000,47.200001,979.789978
16/06/2023,19:05:28.756,-883,-177,-191,434,510,245,640,36,598,29.600000,47.200001,979.789978
16/06/2023,19:05:28.766,-914,-177,-167,625,473,258,643,31,604,29.600000,47.200001,979.789978
16/06/2023,19:05:28.775,-958,-184,-123,726,440,242,627,21,613,29.600000,47.200001,979.789978
16/06/2023,19:05:28.785,-996,-186,-91,768,430,222,640,45,597,29.600000,47.200001,979.789978
16/06/2023,19:05:28.794,-1017,-169,-65,800,447,229,639,40,618,29.600000,47.200001,979.789978
16/06/2023,19:05:28.803,-1035,-140,-18,835,495,233,643,46,628,29.600000,47.200001,979.789978
16/06/2023,19:05:28.813,-1046,-117,52,882,507,229,613,39,612,29.600000,47.200001,979.789978
16/06/2023,19:05:28.822,-1053,-101,125,924,411,210,637,49,612,29.600000,47.200001,979.789978
16/06/2023,19:05:28.831,-1043,-89,157,919,258,204,616,55,634,29.600000,47.200001,979.789978
16/06/2023,19:05:28.840,-1022,-78,122,830,105,178,616,55,634,29.600000,47.200001,979.789978
16/06/2023,19:05:28.850,-1003,-104,58,741,-11,113,624,61,633,29.600000,47.200001,979.789978
16/06/2023,19:05:28.859,-990,-160,-1,667,-82,102,624,61,633,29.600000,47.200001,979.789978
16/06/2023,19:05:28.869,-1012,-198,-58,614,-105,130,616,75,636,29.600000,47.200001,979.789978
16/06/2023,19:05:28.878,-1060,-222,-112,618,-89,161,633,66,613,29.600000,47.200001,979.789978
16/06/2023,19:05:28.888,-1087,-253,-152,618,-89,161,622,46,606,29.600000,47.200001,979.789978
16/06/2023,19:05:28.897,-1115,-288,-148,679,-84,218,637,67,622,29.600000,47.200001,979.789978
16/06/2023,19:05:28.906,-1152,-326,-107,758,-130,276,633,49,606,29.600000,47.200001,979.789978
16/06/2023,19:05:28.916,-1155,-376,-95,744,-204,267,631,49,622,29.600000,47.200001,979.789978
16/06/2023,19:05:28.925,-1158,-417,-97,630,-217,239,649,60,603,29.600000,47.200001,979.789978
16/06/2023,19:05:28.934,-1158,-443,-82,478,-106,190,649,60,603,29.600000,47.200001,979.789978
16/06/2023,19:05:28.943,-1175,-443,-82,329,123,76,622,45,625,29.600000,47.200001,979.789978
16/06/2023,19:05:28.953,-1145,-506,90,231,429,-85,627,39,621,29.600000,47.200001,979.789978
16/06/2023,19:05:28.963,-1145,-506,90,215,719,-226,642,85,622,29.600000,47.200001,979.789978
16/06/2023,19:05:28.972,-1123,-552,328,285,823,-267,622,75,609,29.600000,47.200001,979.789978
16/06/2023,19:05:28.981,-1200,-555,676,298,445,-154,639,67,616,29.600000,47.200001,979.789978
16/06/2023,19:05:28.991,-1342,-510,854,36,-248,-11,624,94,624,29.600000,47.200001,979.789978
16/06/2023,19:05:29.000,-1397,-435,642,-355,-700,20,640,75,622,29.600000,47.200001,979.789978
16/06/2023,19:05:29.009,-1299,-339,335,-581,-787,18,622,66,619,29.600000,47.200001,979.789978
16/06/2023,19:05:29.019,-1160,-281,190,-669,-832,34,633,73,633,29.600000,47.200001,979.789978
16/06/2023,19:05:29.028,-1056,-234,153,-717,-943,61,633,73,633,29.600000,47.200001,979.789978
16/06/2023,19:05:29.037,-954,-212,134,-783,-1083,78,631,54,594,29.600000,47.200001,979.789978
16/06/2023,19:05:29.047,-913,-228,98,-918,-1163,95,654,48,607,29.600000,47.200001,979.789978
16/06/2023,19:05:29.056,-901,-269,51,-1123,-1225,84,634,54,586,29.600000,47.200001,979.789978
16/06/2023,19:05:29.066,-923,-323,-90,-1483,-1205,149,651,36,601,29.600000,47.200001,979.789978
16/06/2023,19:05:29.075,-999,-306,-327,-1881,-1186,99,651,37,565,29.600000,47.200001,979.789978
16/06/2023,19:05:29.084,-1039,-271,-537,-2109,-1201,-51,666,30,580,29.600000,47.200001,979.789978
16/06/2023,19:05:29.094,-1118,-267,-658,-2166,-1251,-218,661,25,561,29.600000,47.200001,979.789978
16/06/2023,19:05:29.103,-1275,-293,-728,-1902,-1304,-385,669,30,549,29.600000,47.200001,979.789978
16/06/2023,19:05:29.112,-1417,-357,-787,-1141,-1249,-398,696,21,541,29.600000,47.200001,979.789978
16/06/2023,19:05:29.121,-1601,-468,-590,-69,-1143,-189,696,21,541,29.600000,47.200001,979.789978
16/06/2023,19:05:29.131,-1765,-586,16,443,-1241,21,669,18,538,29.600000,47.200001,979.789978
16/06/2023,19:05:29.141,-1780,-484,560,-96,-1680,312,676,15,511,29.600000,47.200001,979.789978
16/06/2023,19:05:29.150,-1704,-126,416,-1176,-1833,202,688,21,520,29.600000,47.200001,979.789978
16/06/2023,19:05:29.162,-1459,60,-7,-1389,-1656,-78,691,6,499,29.600000,47.200001,979.789978
16/06/2023,19:05:29.169,-1154,45,-186,-1181,-1363,45,709,16,495,29.600000,47.200001,979.789978
16/06/2023,19:05:29.178,-969,59,-272,-869,-1277,248,702,-6,480,29.600000,47.200001,979.789978
16/06/2023,19:05:29.187,-810,80,-237,-697,-1271,407,702,-6,480,29.600000,47.400002,979.789978
16/06/2023,19:05:29.197,-710,147,-138,-648,-1235,477,702,-12,466,29.600000,47.400002,979.799988
16/06/2023,19:05:29.206,-659,179,-83,-689,-1083,409,706,-16,438,29.600000,47.400002,979.799988
16/06/2023,19:05:29.215,-532,122,-142,-742,-985,386,706,-16,438,29.600000,47.400002,979.799988
16/06/2023,19:05:29.224,-452,93,-146,-738,-866,403,699,-4,457,29.600000,47.400002,979.799988
16/06/2023,19:05:29.234,-438,88,-98,-738,-866,403,693,-27,448,29.600000,47.400002,979.799988
16/06/2023,19:05:29.244,-443,67,-89,-687,-712,336,709,-30,417,29.600000,47.400002,979.799988
16/06/2023,19:05:29.253,-468,60,-76,-666,-595,238,694,-33,417,29.600000,47.400002,979.799988
16/06/2023,19:05:29.262,-462,20,-110,-689,-538,135,717,-34,409,29.600000,47.400002,979.799988
16/06/2023,19:05:29.272,-517,-18,-110,-696,-443,23,691,-27,424,29.600000,47.400002,979.799988
16/06/2023,19:05:29.281,-599,-35,-68,-679,-342,-15,705,-36,409,29.600000,47.400002,979.799988
16/06/2023,19:05:29.290,-619,-43,-33,-663,-263,-9,711,-37,396,29.600000,47.400002,979.799988
16/06/2023,19:05:29.300,-598,-23,18,-639,-216,38,691,-24,403,29.600000,47.400002,979.799988
16/06/2023,19:05:29.309,-598,-23,18,-603,-143,54,691,-24,403,29.600000,47.400002,979.799988
16/06/2023,19:05:29.318,-564,32,109,-483,-62,89,709,-25,388,29.600000,47.400002,979.799988
16/06/2023,19:05:29.328,-519,95,170,-349,16,78,702,-18,400,29.600000,47.400002,979.799988
16/06/2023,19:05:29.337,-517,146,207,-223,167,78,699,-18,399,29.600000,47.400002,979.799988
16/06/2023,19:05:29.347,-561,205,246,-127,290,41,705,-34,387,29.600000,47.400002,979.799988
16/06/2023,19:05:29.356,-609,187,278,-9,422,1,694,-46,403,29.600000,47.400002,979.799988
16/06/2023,19:05:29.365,-693,48,378,96,569,-34,691,-49,415,29.600000,47.400002,979.799988
16/06/2023,19:05:29.375,-866,-59,472,155,651,-48,702,-45,414,29.600000,47.400002,979.799988
16/06/2023,19:05:29.384,-1111,-79,518,407,692,-87,693,-33,414,29.600000,47.400002,979.799988
16/06/2023,19:05:29.394,-1314,-190,654,428,707,-103,699,-27,429,29.600000,47.400002,979.799988
16/06/2023,19:05:29.402,-1493,-343,816,76,612,-26,699,-27,429,29.600000,47.400002,979.799988
16/06/2023,19:05:29.412,-1607,-321,814,-165,405,36,691,-49,442,29.600000,47.400002,979.799988
16/06/2023,19:05:29.422,-1531,-275,763,-253,180,113,696,-37,450,29.600000,47.400002,979.799988
16/06/2023,19:05:29.431,-1267,-328,707,-252,-24,235,696,-37,450,29.600000,47.400002,979.799988
16/06/2023,19:05:29.440,-964,-343,562,-82,-69,342,702,-31,435,29.600000,47.400002,979.799988
16/06/2023,19:05:29.450,-745,-292,364,165,2,394,696,-37,441,29.600000,47.400002,979.799988
16/06/2023,19:05:29.459,-578,-177,110,460,194,375,670,-42,435,29.600000,47.400002,979.799988
16/06/2023,19:05:29.478,-824,216,-175,1277,944,11,691,-51,444,29.600000,47.400002,979.799988
16/06/2023,19:05:29.487,-1108,292,-142,1325,1052,-417,691,-51,444,29.600000,47.400002,979.799988
16/06/2023,19:05:29.496,-1321,402,-348,1358,992,-793,693,-49,460,29.600000,47.400002,979.799988
16/06/2023,19:05:29.506,-1424,437,-566,1488,1017,-1080,682,-34,469,29.600000,47.400002,979.799988
16/06/2023,19:05:29.515,-1438,404,-468,1391,904,-1398,667,-33,495,29.600000,47.400002,979.799988
16/06/2023,19:05:29.525,-1333,329,-234,919,851,-1412,679,-6,480,29.600000,47.400002,979.799988
16/06/2023,19:05:29.534,-1203,243,-24,479,759,-981,685,-6,486,29.600000,47.400002,979.799988
16/06/2023,19:05:29.543,-1138,175,99,171,452,-520,664,15,507,29.600000,47.400002,979.799988
16/06/2023,19:05:29.553,-992,81,83,-42,108,-356,670,6,520,29.600000,47.400002,979.799988
16/06/2023,19:05:29.562,-753,-27,-93,-42,108,-356,679,36,507,29.600000,47.400002,979.799988
16/06/2023,19:05:29.572,-615,-104,-272,-144,70,-281,676,7,502,29.600000,47.400002,979.799988
16/06/2023,19:05:29.580,-565,-143,-373,-203,243,-284,676,7,502,29.600000,47.400002,979.799988
16/06/2023,19:05:29.590,-575,-162,-453,-233,466,-352,657,36,525,29.600000,47.400002,979.799988
16/06/2023,19:05:29.600,-682,-204,-498,-97,725,-406,670,12,507,29.600000,47.400002,979.799988
16/06/2023,19:05:29.609,-812,-232,-465,88,996,-422,663,34,510,29.600000,47.400002,979.799988
16/06/2023,19:05:29.618,-925,-178,-421,179,1066,-338,673,43,538,29.600000,47.400002,979.799988
16/06/2023,19:05:29.628,-1002,-159,-381,276,958,-264,667,27,537,29.600000,47.400002,979.799988
16/06/2023,19:05:29.637,-1131,-251,-265,518,1080,-145,672,43,535,29.600000,47.400002,979.799988
16/06/2023,19:05:29.647,-1131,-340,-265,828,1310,232,637,48,544,29.600000,47.400002,979.799988
16/06/2023,19:05:29.656,-1308,-340,-155,1077,1201,826,646,42,586,29.600000,47.400002,979.799988
16/06/2023,19:05:29.665,-1417,-329,-68,1245,993,1169,636,46,568,29.600000,47.400002,979.799988
16/06/2023,19:05:29.674,-1352,-330,28,1245,516,973,636,46,568,29.600000,47.400002,979.799988
16/06/2023,19:05:29.684,-1107,-389,36,1124,240,690,631,33,561,29.600000,47.400002,979.799988
16/06/2023,19:05:29.693,-884,-431,23,984,285,512,633,15,547,29.600000,47.400002,979.799988
16/06/2023,19:05:29.703,-766,-441,53,867,434,373,642,13,568,29.600000,47.400002,979.799988
16/06/2023,19:05:29.712,-716,-452,95,743,590,277,633,37,564,29.600000,47.400002,979.799988
16/06/2023,19:05:29.721,-724,-443,130,650,644,228,645,34,588,29.600000,47.400002,979.799988
16/06/2023,19:05:29.731,-819,-343,105,614,651,287,654,43,586,29.600000,47.400002,979.799988
16/06/2023,19:05:29.740,-908,-226,67,661,632,268,622,16,594,29.600000,47.400002,979.799988
16/06/2023,19:05:29.750,-933,-155,49,681,565,196,634,24,582,29.600000,47.400002,979.799988
16/06/2023,19:05:29.758,-959,-114,26,652,498,147,634,24,582,29.600000,47.400002,979.799988
16/06/2023,19:05:29.768,-994,-94,19,611,433,93,619,34,598,29.600000,47.400002,979.799988
16/06/2023,19:05:29.778,-1020,-84,12,585,346,65,636,28,601,29.600000,47.400002,979.799988
16/06/2023,19:05:29.787,-1034,-91,1,559,296,38,612,40,601,29.600000,47.400002,979.799988
16/06/2023,19:05:29.796,-1023,-127,6,510,303,15,612,40,601,29.600000,47.400002,979.799988
16/06/2023,19:05:29.806,-1016,-172,32,419,327,3,609,40,609,29.600000,47.400002,979.799988
16/06/2023,19:05:29.815,-1023,-214,50,318,331,-6,613,58,595,29.600000,47.400002,979.799988
16/06/2023,19:05:29.825,-1020,-255,42,256,303,-22,609,49,604,29.600000,47.400002,979.799988
16/06/2023,19:05:29.834,-1012,-312,26,215,234,3,610,48,601,29.600000,47.400002,979.799988
16/06/2023,19:05:29.843,-1009,-336,-13,177,122,26,609,48,612,29.600000,47.400002,979.799988
16/06/2023,19:05:29.852,-1013,-308,-88,212,35,9,609,48,612,29.600000,47.400002,979.799988
16/06/2023,19:05:29.861,-991,-308,-122,286,26,-1,619,30,607,29.600000,47.400002,979.799988
16/06/2023,19:05:29.871,-966,-314,-131,345,44,3,615,43,606,29.600000,47.400002,979.799988
16/06/2023,19:05:29.881,-952,-306,-124,408,95,-14,601,42,592,29.600000,47.400002,979.799988
16/06/2023,19:05:29.890,-941,-305,-82,452,191,0,615,51,610,29.600000,47.400002,979.799988
16/06/2023,19:05:29.899,-970,-308,-19,452,320,-2,616,51,627,29.600000,47.400002,979.799988
16/06/2023,19:05:29.909,-1027,-327,58,404,376,-18,618,64,613,29.600000,47.400002,979.799988
16/06/2023,19:05:29.918,-1084,-350,125,404,376,-18,604,63,621,29.600000,47.400002,979.799988
16/06/2023,19:05:29.928,-1120,-357,186,321,350,-41,603,51,609,29.600000,47.400002,979.799988
16/06/2023,19:05:29.937,-1137,-371,257,213,327,-79,621,49,621,29.600000,47.400002,979.799988
16/06/2023,19:05:29.946,-1199,-428,356,82,257,-109,621,49,621,29.600000,47.400002,979.799988
16/06/2023,19:05:29.955,-1324,-522,450,-40,116,-87,604,45,604,29.600000,47.400002,979.799988
16/06/2023,19:05:29.965,-1440,-622,466,-155,-126,-1,607,51,613,29.600000,47.400002,979.799988
16/06/2023,19:05:29.974,-1442,-668,378,-353,-458,82,598,61,613,29.600000,47.400002,979.799988
16/06/2023,19:05:29.984,-1282,-619,292,-625,-690,83,598,48,619,29.600000,47.400002,979.799988
16/06/2023,19:05:29.993,-1282,-619,292,-821,-794,85,607,37,622,29.600000,47.400002,979.799988
16/06/2023,19:05:30.003,-1123,-498,300,-956,-963,109,613,43,627,29.600000,47.400002,979.799988
16/06/2023,19:05:30.012,-1037,-375,337,-1027,-1148,176,616,40,598,29.600000,47.400002,979.799988
16/06/2023,19:05:30.021,-1025,-285,290,-1143,-1345,270,618,28,594,29.600000,47.400002,979.799988
16/06/2023,19:05:30.030,-1057,-219,139,-1299,-1423,282,636,7,576,29.600000,47.400002,979.799988
16/06/2023,19:05:30.039,-1071,-189,-87,-1502,-1413,199,636,7,576,29.600000,47.400002,979.799988
16/06/2023,19:05:30.049,-1094,-202,-349,-1747,-1320,79,633,24,573,29.600000,47.400002,979.799988
16/06/2023,19:05:30.059,-1197,-158,-637,-1944,-1208,-24,639,12,565,29.600000,47.400002,979.799988
16/06/2023,19:05:30.068,-1377,-38,-891,-1850,-1125,-267,642,9,568,29.600000,47.400002,979.799988
16/06/2023,19:05:30.077,-1510,27,-991,-1468,-970,-696,627,0,552,29.600000,47.400002,979.799988
16/06/2023,19:05:30.096,-1458,-27,-701,70,-1122,-1025,655,22,546,29.600000,47.400002,979.799988
16/06/2023,19:05:30.106,-1388,-223,-238,364,-924,-406,655,19,541,29.600000,47.400002,979.799988
16/06/2023,19:05:30.115,-1535,-332,328,-163,-1165,150,655,15,528,29.600000,47.400002,979.799988
16/06/2023,19:05:30.124,-1653,-326,528,-1254,-1639,358,664,1,517,29.600000,47.400002,979.799988
16/06/2023,19:05:30.133,-1530,-152,212,-1785,-1841,192,664,1,517,29.600000,47.400002,979.799988
16/06/2023,19:05:30.142,-1300,36,-122,-1739,-1586,26,643,15,516,29.600000,47.400002,979.799988
16/06/2023,19:05:30.152,-1082,2,-256,-1327,-1280,122,663,1,498,29.600000,47.400002,979.799988
16/06/2023,19:05:30.162,-878,-81,-278,-993,-1148,302,667,-6,472,29.600000,47.400002,979.799988
16/06/2023,19:05:30.171,-743,-76,-203,-834,-1109,433,681,0,456,29.600000,47.400002,979.799988
16/06/2023,19:05:30.181,-654,-26,-122,-768,-994,493,666,-10,451,29.600000,47.400002,979.799988
16/06/2023,19:05:30.190,-569,40,-97,-733,-858,538,663,-16,450,29.600000,47.400002,979.799988
16/06/2023,19:05:30.199,-493,100,-117,-763,-761,519,687,-21,448,29.600000,47.400002,979.799988
16/06/2023,19:05:30.209,-422,129,-135,-809,-686,463,678,-21,447,29.600000,47.400002,979.799988
16/06/2023,19:05:30.217,-359,142,-113,-868,-583,379,678,-21,447,29.600000,47.400002,979.799988
16/06/2023,19:05:30.227,-331,155,-81,-905,-503,259,670,-37,433,29.600000,47.400002,979.799988
16/06/2023,19:05:30.237,-310,145,-82,-904,-412,170,666,-40,417,29.600000,47.299999,979.869995
16/06/2023,19:05:30.246,-315,95,-126,-863,-279,119,675,-51,439,29.600000,47.299999,979.869995
16/06/2023,19:05:30.255,-390,53,-136,-730,-95,99,679,-40,409,29.600000,47.299999,979.869995
16/06/2023,19:05:30.265,-446,55,-68,-730,-95,99,670,-30,433,29.600000,47.299999,979.869995
16/06/2023,19:05:30.274,-474,76,-8,-581,42,79,676,-45,418,29.600000,47.299999,979.869995
16/06/2023,19:05:30.284,-512,101,40,-459,141,66,676,-51,423,29.600000,47.299999,979.869995
16/06/2023,19:05:30.293,-550,116,104,-365,209,62,675,-37,418,29.600000,47.299999,979.869995
16/06/2023,19:05:30.302,-595,135,171,-278,243,61,675,-37,418,29.600000,47.299999,979.869995
16/06/2023,19:05:30.311,-659,150,226,-194,277,44,685,-61,436,29.600000,47.299999,979.869995
16/06/2023,19:05:30.321,-723,108,258,-110,318,21,685,-39,411,29.600000,47.299999,979.869995
16/06/2023,19:05:30.330,-817,53,216,-15,381,-21,681,-31,417,29.600000,47.299999,979.869995
16/06/2023,19:05:30.340,-817,53,216,110,500,-40,672,-51,448,29.600000,47.299999,979.869995
16/06/2023,19:05:30.352,-946,-22,251,267,598,-61,675,-46,430,29.600000,47.299999,979.869995
16/06/2023,19:05:30.359,-1153,-109,386,365,727,-13,672,-34,465,29.600000,47.299999,979.869995
16/06/2023,19:05:30.368,-1372,-120,516,429,757,7,685,-39,459,29.600000,47.299999,979.869995
16/06/2023,19:05:30.377,-1526,-118,682,167,619,62,682,-33,460,29.600000,47.299999,979.869995
16/06/2023,19:05:30.387,-1583,-105,792,-157,370,88,667,-45,447,29.600000,47.299999,979.869995
16/06/2023,19:05:30.395,-1533,-88,850,-432,118,115,667,-45,447,29.600000,47.299999,979.869995
16/06/2023,19:05:30.405,-1400,-153,836,-534,-174,217,673,-39,459,29.600000,47.299999,979.869995
16/06/2023,19:05:30.415,-1184,-219,686,-391,-336,355,661,-40,456,29.600000,47.299999,979.869995
16/06/2023,19:05:30.424,-980,-206,499,-89,-290,428,678,-64,454,29.600000,47.299999,979.869995
16/06/2023,19:05:30.433,-829,-186,381,218,-154,403,655,-48,436,29.600000,47.299999,979.869995
16/06/2023,19:05:30.443,-719,-166,308,463,0,313,675,-64,453,29.600000,47.299999,979.869995
16/06/2023,19:05:30.452,-610,-52,158,623,237,161,661,-54,447,29.600000,47.299999,979.869995
16/06/2023,19:05:30.462,-721,146,36,989,612,-3,669,-61,456,29.600000,47.299999,979.869995
16/06/2023,19:05:30.471,-1018,153,30,1181,1049,-212,654,-69,453,29.600000,47.299999,979.869995
16/06/2023,19:05:30.480,-1270,110,-4,1274,1177,-504,654,-69,453,29.600000,47.299999,979.869995
16/06/2023,19:05:30.489,-1454,216,-213,1310,1091,-789,649,-49,484,29.600000,47.299999,979.869995
16/06/2023,19:05:30.499,-1514,232,-424,1143,895,-868,673,-39,490,29.600000,47.299999,979.869995
16/06/2023,19:05:30.508,-1431,161,-458,697,751,-848,648,-24,514,29.600000,47.299999,979.869995
16/06/2023,19:05:30.518,-1243,98,-402,339,626,-730,667,-31,513,29.600000,47.299999,979.869995
16/06/2023,19:05:30.527,-1050,82,-308,189,427,-447,651,-9,501,29.600000,47.299999,979.869995
16/06/2023,19:05:30.537,-896,118,-190,264,275,-261,658,-7,492,29.600000,47.299999,979.869995
16/06/2023,19:05:30.546,-733,135,-83,486,184,-182,646,-15,520,29.600000,47.299999,979.869995
16/06/2023,19:05:30.555,-590,117,-53,666,302,-161,639,-15,520,29.600000,47.299999,979.869995
16/06/2023,19:05:30.565,-554,86,-81,702,541,-203,639,-4,501,29.600000,47.299999,979.869995
16/06/2023,19:05:30.573,-612,76,-186,576,650,-307,639,-4,501,29.600000,47.299999,979.869995
16/06/2023,19:05:30.583,-687,128,-308,559,655,-392,639,0,514,29.600000,47.299999,979.869995
16/06/2023,19:05:30.593,-726,139,-319,753,672,-436,655,-12,522,29.600000,47.299999,979.869995
16/06/2023,19:05:30.605,-783,104,-302,907,650,-444,667,10,526,29.600000,47.299999,979.869995
16/06/2023,19:05:30.611,-864,74,-355,907,650,-444,642,9,529,29.600000,47.299999,979.869995
16/06/2023,19:05:30.621,-961,-20,-410,1048,711,-463,651,16,510,29.600000,47.299999,979.869995
16/06/2023,19:05:30.630,-1167,-197,-372,1065,983,-348,622,13,535,29.600000,47.299999,979.869995
16/06/2023,19:05:30.640,-1421,-373,-300,978,1304,60,630,10,561,29.600000,47.299999,979.869995
16/06/2023,19:05:30.649,-1560,-425,-177,954,1291,773,628,24,561,29.600000,47.299999,979.869995
16/06/2023,19:05:30.658,-1560,-465,2,1109,1115,1151,636,36,559,29.600000,47.299999,979.869995
16/06/2023,19:05:30.667,-1451,-465,2,1144,533,908,636,36,559,29.600000,47.299999,979.869995
16/06/2023,19:05:30.676,-1134,-550,26,986,176,548,639,15,571,29.600000,47.299999,979.869995
16/06/2023,19:05:30.686,-841,-582,-21,890,228,298,636,31,564,29.600000,47.299999,979.869995
16/06/2023,19:05:30.696,-690,-597,4,878,379,170,621,6,583,29.600000,47.299999,979.869995
16/06/2023,19:05:30.714,-628,-620,41,812,497,192,607,34,568,29.600000,47.299999,979.869995
16/06/2023,19:05:30.724,-700,-517,9,617,533,192,616,18,580,29.600000,47.299999,979.869995
16/06/2023,19:05:30.733,-757,-432,-26,580,609,199,606,21,592,29.600000,47.299999,979.869995
16/06/2023,19:05:30.743,-841,-351,-5,571,703,209,621,24,585,29.600000,47.299999,979.869995
16/06/2023,19:05:30.752,-918,-282,38,527,760,201,604,16,594,29.600000,47.299999,979.869995
16/06/2023,19:05:30.761,-971,-202,68,469,737,156,604,16,594,29.600000,47.299999,979.869995
16/06/2023,19:05:30.771,-998,-153,95,433,620,114,601,10,588,29.600000,47.299999,979.869995
16/06/2023,19:05:30.780,-1010,-127,101,394,482,95,598,13,583,29.600000,47.299999,979.869995
16/06/2023,19:05:30.790,-1017,-108,83,374,422,82,604,27,604,29.600000,47.299999,979.869995
16/06/2023,19:05:30.799,-1018,-112,80,354,370,81,592,24,603,29.600000,47.299999,979.869995
16/06/2023,19:05:30.808,-1027,-125,76,324,285,72,603,25,588,29.600000,47.299999,979.869995
16/06/2023,19:05:30.818,-1034,-158,55,252,189,56,595,27,609,29.600000,47.299999,979.869995
16/06/2023,19:05:30.827,-1038,-180,-3,193,109,37,604,36,601,29.600000,47.299999,979.869995
16/06/2023,19:05:30.836,-1036,-202,-85,190,64,35,586,40,609,29.600000,47.299999,979.869995
16/06/2023,19:05:30.845,-1034,-229,-150,230,63,51,586,40,609,29.600000,47.299999,979.869995
16/06/2023,19:05:30.854,-1048,-249,-180,324,120,37,582,39,600,29.600000,47.299999,979.869995
16/06/2023,19:05:30.864,-1065,-276,-193,445,126,21,594,31,639,29.600000,47.299999,979.869995
16/06/2023,19:05:30.874,-1059,-295,-177,560,120,23,591,52,601,29.600000,47.299999,979.869995
16/06/2023,19:05:30.883,-1041,-313,-124,595,115,4,601,40,618,29.600000,47.299999,979.869995
16/06/2023,19:05:30.893,-1018,-339,-75,535,115,-20,591,36,607,29.600000,47.299999,979.869995
16/06/2023,19:05:30.902,-992,-369,-35,435,162,-32,579,25,600,29.600000,47.299999,979.869995
16/06/2023,19:05:30.911,-996,-409,18,247,257,-42,588,48,609,29.600000,47.299999,979.869995
16/06/2023,19:05:30.921,-1035,-453,63,-12,346,-64,606,64,613,29.600000,47.299999,979.869995
16/06/2023,19:05:30.930,-1090,-487,116,-224,474,-79,592,64,627,29.600000,47.299999,979.869995
16/06/2023,19:05:30.939,-1146,-490,210,-304,577,-69,592,64,627,29.600000,47.299999,979.869995
16/06/2023,19:05:30.948,-1209,-463,391,-287,452,-22,576,58,630,29.600000,47.299999,979.869995
16/06/2023,19:05:30.958,-1336,-466,582,-287,452,-22,568,36,628,29.600000,47.299999,979.869995
16/06/2023,19:05:30.968,-1456,-521,613,-276,-44,44,574,51,621,29.600000,47.299999,979.869995
16/06/2023,19:05:30.977,-1412,-507,444,-391,-571,123,573,46,628,29.600000,47.299999,979.869995
16/06/2023,19:05:30.986,-1248,-401,277,-678,-797,159,582,39,636,29.600000,47.299999,979.869995
16/06/2023,19:05:30.996,-1108,-285,251,-861,-801,203,576,30,616,29.600000,47.299999,979.869995
16/06/2023,19:05:31.005,-1034,-208,243,-916,-952,203,598,37,595,29.600000,47.299999,979.869995
16/06/2023,19:05:31.014,-993,-178,173,-880,-1192,215,583,10,604,29.600000,47.299999,979.869995
16/06/2023,19:05:31.023,-993,-178,173,-763,-1417,244,583,10,604,29.600000,47.299999,979.869995
16/06/2023,19:05:31.032,-994,-168,96,-770,-1497,267,604,15,588,29.600000,47.299999,979.869995
16/06/2023,19:05:31.042,-1001,-206,-33,-1015,-1430,254,606,34,582,29.600000,47.299999,979.869995
16/06/2023,19:05:31.052,-1040,-204,-306,-1383,-1316,150,598,21,579,29.600000,47.299999,979.869995
16/06/2023,19:05:31.061,-1164,-149,-572,-1671,-1272,-33,618,-4,579,29.600000,47.299999,979.869995
16/06/2023,19:05:31.071,-1322,-68,-736,-1718,-1268,-313,616,1,556,29.600000,47.299999,979.869995
16/06/2023,19:05:31.080,-1504,66,-860,-1400,-1102,-673,616,-10,576,29.600000,47.299999,979.869995
16/06/2023,19:05:31.089,-1675,181,-941,-621,-873,-1199,636,19,562,29.600000,47.299999,979.869995
16/06/2023,19:05:31.099,-1632,133,-757,396,-808,-1357,630,15,550,29.600000,47.299999,979.869995
16/06/2023,19:05:31.108,-1462,-68,-207,998,-906,-715,646,19,525,29.600000,47.299999,979.869995
16/06/2023,19:05:31.117,-1612,-187,472,381,-1222,101,646,19,525,29.600000,47.299999,979.869995
16/06/2023,19:05:31.127,-1763,-246,732,-850,-1812,295,640,4,514,29.600000,47.299999,979.869995
16/06/2023,19:05:31.136,-1545,-113,350,-1743,-2016,225,628,15,528,29.600000,47.299999,979.869995
16/06/2023,19:05:31.146,-1268,127,-115,-1725,-1816,-6,655,21,514,29.600000,47.299999,979.869995
16/06/2023,19:05:31.155,-1032,157,-284,-1172,-1493,-89,658,13,508,29.600000,47.299999,979.869995
16/06/2023,19:05:31.164,-754,59,-306,-697,-1274,93,642,6,511,29.600000,47.299999,979.869995
16/06/2023,19:05:31.174,-570,12,-265,-320,-1079,374,652,-1,469,29.600000,47.299999,979.869995
16/06/2023,19:05:31.183,-515,44,-150,-154,-916,490,645,-12,466,29.600000,47.299999,979.869995
16/06/2023,19:05:31.192,-463,68,-71,-133,-766,488,663,0,442,29.600000,47.299999,979.869995
16/06/2023,19:05:31.201,-422,63,-62,-155,-626,465,663,0,442,29.600000,47.299999,979.869995
16/06/2023,19:05:31.210,-394,60,-62,-236,-529,410,666,-6,453,29.600000,47.299999,979.869995
16/06/2023,19:05:31.220,-396,84,-63,-322,-466,326,658,-27,459,29.600000,47.299999,979.869995
16/06/2023,19:05:31.230,-402,92,-74,-365,-421,231,660,-9,453,29.600000,47.299999,979.869995
16/06/2023,19:05:31.239,-394,96,-76,-374,-356,155,669,-18,447,29.600000,47.299999,979.869995
16/06/2023,19:05:31.249,-389,92,-72,-430,-290,68,652,-13,456,29.600000,47.299999,979.869995
16/06/2023,19:05:31.258,-411,65,-54,-452,-160,18,667,-37,448,29.600000,47.299999,979.869995
16/06/2023,19:05:31.267,-445,51,-14,-463,-66,-13,658,-18,423,29.600000,47.299999,979.869995
16/06/2023,19:05:31.277,-449,59,37,-463,-66,-13,658,-18,423,29.600000,47.299999,979.869995
16/06/2023,19:05:31.285,-450,43,92,-473,14,-39,658,-19,445,29.600000,47.299999,979.849976
16/06/2023,19:05:31.295,-459,46,124,-503,142,-93,658,-19,445,29.600000,47.299999,979.849976
16/06/2023,19:05:31.304,-512,54,170,-503,142,-93,652,-16,432,29.600000,47.299999,979.849976
16/06/2023,19:05:31.314,-590,55,240,-424,259,-112,660,-15,420,29.600000,47.299999,979.849976
16/06/2023,19:05:31.324,-653,77,293,-296,374,-146,651,-28,445,29.600000,47.299999,979.849976
16/06/2023,19:05:31.342,-804,67,361,31,662,-298,655,3,456,29.600000,47.299999,979.849976
16/06/2023,19:05:31.352,-1102,-39,463,278,829,-350,661,-18,459,29.600000,47.299999,979.849976
16/06/2023,19:05:31.361,-1516,-168,786,590,1077,-330,645,-25,454,29.600000,47.299999,979.849976
16/06/2023,19:05:31.370,-1516,-301,786,611,1027,-147,645,-9,472,29.600000,47.299999,979.849976
16/06/2023,19:05:31.380,-1843,-301,1086,88,594,-53,651,-15,477,29.600000,47.299999,979.849976
16/06/2023,19:05:31.389,-1934,-428,1100,-555,104,-35,651,-15,477,29.600000,47.299999,979.849976
16/06/2023,19:05:31.398,-1791,-476,841,-580,-194,142,652,-18,469,29.600000,47.299999,979.849976
16/06/2023,19:05:31.408,-1449,-421,629,-273,-245,394,651,-18,480,29.600000,47.299999,979.849976
16/06/2023,19:05:31.417,-1024,-308,425,181,-273,546,642,-13,472,29.600000,47.299999,979.849976
16/06/2023,19:05:31.427,-826,-88,162,619,-30,446,646,-36,465,29.600000,47.299999,979.849976
16/06/2023,19:05:31.436,-982,160,-9,1059,499,151,664,-34,477,29.600000,47.299999,979.849976
16/06/2023,19:05:31.445,-1230,335,-154,1205,767,-254,636,-24,487,29.600000,47.299999,979.849976
16/06/2023,19:05:31.455,-1374,465,-336,1260,809,-593,645,-27,489,29.600000,47.299999,979.849976
16/06/2023,19:05:31.464,-1406,483,-461,1191,767,-723,627,-12,490,29.600000,47.299999,979.849976
16/06/2023,19:05:31.473,-1301,384,-394,975,830,-670,642,3,492,29.600000,47.299999,979.849976
16/06/2023,19:05:31.482,-1192,288,-207,702,790,-500,642,3,492,29.600000,47.299999,979.849976
16/06/2023,19:05:31.492,-1048,218,-29,415,528,-386,622,-3,510,29.600000,47.299999,979.849976
16/06/2023,19:05:31.502,-843,172,61,228,204,-363,622,-3,510,29.600000,47.299999,979.849976
16/06/2023,19:05:31.511,-628,138,30,172,27,-329,642,-3,507,29.600000,47.299999,979.849976
16/06/2023,19:05:31.520,-469,135,-104,196,115,-291,619,16,519,29.600000,47.299999,979.849976
16/06/2023,19:05:31.530,-434,128,-238,201,426,-299,613,12,505,29.600000,47.299999,979.849976
16/06/2023,19:05:31.539,-457,58,-303,91,601,-354,627,15,516,29.600000,47.299999,979.849976
16/06/2023,19:05:31.548,-519,-10,-365,-174,682,-453,628,21,534,29.600000,47.299999,979.849976
16/06/2023,19:05:31.558,-629,-27,-444,-507,880,-534,625,24,529,29.600000,47.299999,979.849976
16/06/2023,19:05:31.567,-740,-74,-476,-632,1050,-492,625,24,529,29.600000,47.299999,979.849976
16/06/2023,19:05:31.576,-915,-158,-518,-687,1150,-250,622,13,543,29.600000,47.299999,979.849976
16/06/2023,19:05:31.586,-1192,-240,-481,-592,1394,45,604,10,549,29.600000,47.299999,979.849976
16/06/2023,19:05:31.595,-1392,-345,-305,-75,1339,415,598,25,562,29.600000,47.299999,979.849976
16/06/2023,19:05:31.605,-1434,-399,-176,694,1075,745,603,24,576,29.600000,47.299999,979.849976
16/06/2023,19:05:31.614,-1359,-419,-85,1360,743,741,583,3,564,29.600000,47.299999,979.849976
16/06/2023,19:05:31.623,-1194,-480,-23,1654,526,632,583,-4,576,29.600000,47.299999,979.849976
16/06/2023,19:05:31.633,-1048,-524,11,1551,412,641,583,28,562,29.600000,47.299999,979.849976
16/06/2023,19:05:31.642,-977,-502,36,1551,412,641,588,31,594,29.600000,47.299999,979.849976
16/06/2023,19:05:31.651,-917,-459,16,1295,368,629,585,27,574,29.600000,47.299999,979.849976
16/06/2023,19:05:31.660,-828,-430,-3,1087,378,479,585,27,574,29.600000,47.299999,979.849976
16/06/2023,19:05:31.670,-753,-392,26,917,522,302,592,7,580,29.600000,47.299999,979.849976
16/06/2023,19:05:31.680,-737,-329,75,779,661,278,585,22,588,29.600000,47.299999,979.849976
16/06/2023,19:05:31.692,-778,-245,95,631,718,303,585,-1,601,29.600000,47.299999,979.849976
16/06/2023,19:05:31.698,-851,-169,104,459,782,306,568,13,588,29.600000,47.299999,979.849976
16/06/2023,19:05:31.708,-909,-111,114,296,811,283,576,19,600,29.600000,47.299999,979.849976
16/06/2023,19:05:31.717,-909,-111,114,178,746,216,553,15,609,29.600000,47.299999,979.849976
16/06/2023,19:05:31.726,-932,-73,115,142,572,152,547,31,616,29.600000,47.299999,979.849976
16/06/2023,19:05:31.736,-946,-50,91,139,410,100,546,22,597,29.600000,47.299999,979.849976
16/06/2023,19:05:31.745,-947,-33,53,149,332,56,556,13,595,29.600000,47.299999,979.849976
16/06/2023,19:05:31.754,-953,-36,19,186,292,24,556,13,595,29.600000,47.299999,979.849976
16/06/2023,19:05:31.763,-970,-55,-4,223,262,0,553,19,625,29.600000,47.299999,979.849976
16/06/2023,19:05:31.773,-975,-87,-28,224,235,-13,544,12,612,29.600000,47.299999,979.849976
16/06/2023,19:05:31.783,-976,-135,-50,193,216,-24,544,10,618,29.600000,47.299999,979.849976
16/06/2023,19:05:31.792,-970,-191,-72,178,200,-32,540,34,628,29.600000,47.299999,979.849976
16/06/2023,19:05:31.801,-961,-246,-100,172,181,-30,522,19,615,29.600000,47.299999,979.849976
16/06/2023,19:05:31.811,-964,-279,-141,189,160,-7,538,33,612,29.600000,47.299999,979.849976
16/06/2023,19:05:31.820,-946,-299,-160,256,177,24,531,27,616,29.600000,47.299999,979.849976
16/06/2023,19:05:31.829,-918,-310,-150,321,188,36,547,13,616,29.600000,47.299999,979.849976
16/06/2023,19:05:31.839,-915,-311,-134,355,198,19,529,12,621,29.600000,47.299999,979.849976
16/06/2023,19:05:31.848,-925,-332,-117,355,192,7,529,12,621,29.600000,47.299999,979.849976
16/06/2023,19:05:31.857,-961,-346,-106,363,216,18,516,43,636,29.600000,47.299999,979.849976
16/06/2023,19:05:31.867,-1019,-347,-76,353,270,13,538,40,619,29.600000,47.299999,979.849976
16/06/2023,19:05:31.876,-1071,-354,-31,298,336,-10,526,30,636,29.600000,47.299999,979.849976
16/06/2023,19:05:31.886,-1113,-368,16,169,356,-33,517,25,624,29.600000,47.299999,979.849976
16/06/2023,19:05:31.895,-1134,-382,55,15,347,-55,496,13,621,29.600000,47.299999,979.849976
16/06/2023,19:05:31.904,-1183,-415,97,-102,382,-54,504,36,625,29.600000,47.299999,979.849976
16/06/2023,19:05:31.914,-1315,-483,181,-164,400,-4,499,36,631,29.600000,47.299999,979.849976
16/06/2023,19:05:31.923,-1511,-535,372,-193,280,77,499,22,634,29.600000,47.299999,979.849976
16/06/2023,19:05:31.933,-1652,-559,563,-312,-169,111,510,28,634,29.600000,47.299999,979.849976
16/06/2023,19:05:31.941,-1527,-545,513,-601,-532,84,510,28,634,29.600000,47.299999,979.849976
16/06/2023,19:05:31.951,-1284,-445,339,-789,-759,107,510,28,634,29.600000,47.299999,979.849976
16/06/2023,19:05:31.961,-1182,-308,322,-785,-951,141,513,24,643,29.600000,47.299999,979.849976
16/06/2023,19:05:31.970,-1145,-207,436,-818,-1196,158,508,16,633,29.600000,47.299999,979.849976
16/06/2023,19:05:31.979,-1095,-168,414,-978,-1377,161,504,7,627,29.600000,47.299999,979.849976
16/06/2023,19:05:31.989,-1065,-130,187,-978,-1377,161,510,6,607,29.600000,47.299999,979.849976
16/06/2023,19:05:32.001,-1061,-134,-106,-1151,-1490,139,501,-9,613,29.600000,47.299999,979.849976
16/06/2023,19:05:32.007,-1040,-129,-415,-1210,-1514,130,508,-9,624,29.600000,47.299999,979.849976
16/06/2023,19:05:32.017,-1019,-77,-619,-1280,-1328,9,498,-15,603,29.600000,47.299999,979.849976
16/06/2023,19:05:32.026,-1119,-5,-731,-1217,-1193,-137,510,-21,609,29.600000,47.299999,979.849976
16/06/2023,19:05:32.035,-1232,59,-749,-1054,-1232,-333,510,-21,609,29.600000,47.299999,979.849976
16/06/2023,19:05:32.044,-1232,59,-749,-830,-1245,-708,501,-36,613,29.600000,47.299999,979.849976
16/06/2023,19:05:32.054,-1367,51,-480,-525,-1391,-1034,519,-36,610,29.600000,47.299999,979.849976
16/06/2023,19:05:32.064,-1367,51,-480,-36,-1306,-1079,514,-13,610,29.600000,47.299999,979.849976
16/06/2023,19:05:32.073,-1336,-57,-204,375,-1109,-783,510,-28,579,29.600000,47.299999,979.849976
16/06/2023,19:05:32.082,-1415,-212,209,135,-985,-194,516,-24,595,29.600000,47.299999,979.849976
16/06/2023,19:05:32.092,-1597,-338,423,-582,-1361,113,532,-43,594,29.600000,47.299999,979.849976
16/06/2023,19:05:32.101,-1539,-382,323,-1265,-1710,248,549,-39,591,29.600000,47.299999,979.849976
16/06/2023,19:05:32.111,-1316,-199,0,-1477,-1706,129,526,-66,580,29.600000,47.299999,979.849976
16/06/2023,19:05:32.119,-1135,-13,-183,-1313,-1425,21,526,-66,580,29.600000,47.299999,979.849976
16/06/2023,19:05:32.129,-932,-28,-144,-1055,-1207,102,555,-78,570,29.600000,47.299999,979.849976
16/06/2023,19:05:32.139,-719,-54,-183,-775,-1073,240,555,-85,561,29.600000,47.299999,979.849976
16/06/2023,19:05:32.148,-568,-35,-159,-563,-909,365,564,-88,576,29.600000,47.299999,979.849976
16/06/2023,19:05:32.157,-481,-8,-98,-476,-755,353,561,-100,553,29.600000,47.299999,979.849976
16/06/2023,19:05:32.167,-413,10,-96,-449,-582,328,556,-115,562,29.600000,47.299999,979.849976
16/06/2023,19:05:32.176,-395,30,-100,-482,-481,305,555,-129,556,29.600000,47.299999,979.849976
16/06/2023,19:05:32.185,-407,51,-106,-521,-421,267,564,-114,555,29.600000,47.299999,979.849976
16/06/2023,19:05:32.198,-422,86,-113,-538,-340,192,553,-114,565,29.600000,47.299999,979.849976
16/06/2023,19:05:32.204,-413,98,-119,-560,-290,89,540,-154,571,29.600000,47.299999,979.849976
16/06/2023,19:05:32.213,-440,49,-126,-510,-165,38,540,-154,571,29.600000,47.299999,979.849976
16/06/2023,19:05:32.222,-497,32,-107,-414,-69,20,559,-157,549,29.600000,47.299999,979.849976
16/06/2023,19:05:32.232,-513,53,-53,-339,1,14,552,-132,532,29.600000,47.299999,979.849976
16/06/2023,19:05:32.242,-515,64,0,-328,36,5,565,-144,538,29.600000,47.299999,979.849976
16/06/2023,19:05:32.251,-510,76,45,-366,58,1,553,-154,525,29.600000,47.299999,979.849976
16/06/2023,19:05:32.260,-522,96,97,-390,65,8,547,-165,535,29.600000,47.299999,979.849976
16/06/2023,19:05:32.270,-559,134,142,-391,105,2,547,-168,526,29.600000,47.299999,979.849976
16/06/2023,19:05:32.279,-618,156,172,-307,226,-21,546,-165,537,29.600000,47.299999,979.849976
16/06/2023,19:05:32.289,-699,140,197,-143,417,-27,555,-180,528,29.600000,47.299999,979.849976
16/06/2023,19:05:32.301,-767,55,230,67,629,7,559,-189,526,29.600000,47.299999,979.849976
16/06/2023,19:05:32.307,-902,-4,289,338,848,-5,559,-189,526,29.600000,47.299999,979.849976
16/06/2023,19:05:32.316,-1167,11,453,654,1008,-18,547,-180,520,29.600000,47.299999,979.849976
16/06/2023,19:05:32.326,-1467,-43,784,706,932,12,543,-180,541,29.600000,47.200001,979.679993
16/06/2023,19:05:32.335,-1692,-164,1167,706,932,12,540,-178,549,29.600000,47.200001,979.679993
16/06/2023,19:05:32.345,-1760,-360,1373,349,529,20,541,-169,538,29.600000,47.200001,979.679993
16/06/2023,19:05:32.354,-1633,-450,1186,-268,68,85,522,-183,540,29.600000,47.200001,979.679993
16/06/2023,19:05:32.363,-1259,-362,763,-630,-299,287,537,-190,532,29.600000,47.200001,979.679993
16/06/2023,19:05:32.373,-855,-260,417,-487,-511,428,526,-210,513,29.600000,47.200001,979.679993
16/06/2023,19:05:32.382,-924,-61,206,-120,-434,476,523,-210,508,29.600000,47.200001,979.679993
16/06/2023,19:05:32.391,-924,-61,206,408,-98,372,523,-210,508,29.600000,47.200001,979.679993
16/06/2023,19:05:32.401,-1418,155,-89,827,524,85,537,-202,526,29.600000,47.200001,979.679993
16/06/2023,19:05:32.410,-1418,155,-89,1095,826,-390,537,-202,526,29.600000,47.200001,979.679993
16/06/2023,19:05:32.420,-1617,341,-413,1328,800,-758,525,-210,537,29.600000,47.200001,979.679993
16/06/2023,19:05:32.429,-1675,412,-561,1409,715,-910,532,-195,543,29.600000,47.200001,979.679993
16/06/2023,19:05:32.438,-1512,329,-391,1239,674,-840,541,-195,528,29.600000,47.200001,979.679993
16/06/2023,19:05:32.448,-1236,227,-163,885,556,-526,522,-204,514,29.600000,47.200001,979.679993
16/06/2023,19:05:32.457,-952,174,-8,471,252,-322,540,-192,546,29.600000,47.200001,979.679993
16/06/2023,19:05:32.467,-684,154,15,130,-32,-278,520,-187,528,29.600000,47.200001,979.679993
16/06/2023,19:05:32.475,-452,139,-67,-62,-95,-288,520,-187,528,29.600000,47.200001,979.679993
16/06/2023,19:05:32.485,-301,124,-199,-159,72,-271,529,-199,528,29.600000,47.200001,979.679993
16/06/2023,19:05:32.495,-273,107,-362,-111,376,-293,532,-189,526,29.600000,47.200001,979.679993
16/06/2023,19:05:32.504,-343,67,-428,-59,632,-414,538,-205,520,29.600000,47.200001,979.679993
16/06/2023,19:05:32.513,-418,12,-430,-158,725,-552,525,-184,516,29.600000,47.200001,979.679993
16/06/2023,19:05:32.523,-522,2,-482,-330,992,-613,532,-181,537,29.600000,47.200001,979.679993
16/06/2023,19:05:32.532,-722,-34,-480,-322,1354,-610,531,-183,528,29.600000,47.200001,979.679993
16/06/2023,19:05:32.541,-930,-133,-470,-348,1276,-557,526,-189,529,29.600000,47.200001,979.679993
16/06/2023,19:05:32.579,-1562,-473,-9,2118,965,961,499,-177,574,29.600000,47.200001,979.679993
16/06/2023,19:05:32.588,-1397,-515,81,2173,625,889,499,-177,574,29.600000,47.200001,979.679993
16/06/2023,19:05:32.598,-1190,-543,122,1915,436,719,498,-168,579,29.600000,47.200001,979.679993
16/06/2023,19:05:32.607,-1027,-523,118,1595,424,612,508,-163,574,29.600000,47.200001,979.679993
16/06/2023,19:05:32.616,-936,-461,101,1333,496,565,504,-159,565,29.600000,47.200001,979.679993
16/06/2023,19:05:32.629,-904,-381,93,1139,572,474,492,-151,579,29.600000,47.200001,979.679993
16/06/2023,19:05:32.635,-850,-318,109,879,600,363,502,-141,595,29.600000,47.200001,979.679993
16/06/2023,19:05:32.645,-787,-276,129,524,634,317,513,-159,580,29.600000,47.200001,979.679993
16/06/2023,19:05:32.654,-762,-229,128,155,656,291,499,-153,582,29.600000,47.200001,979.679993
16/06/2023,19:05:32.663,-775,-145,58,155,656,291,499,-136,589,29.600000,47.200001,979.679993
16/06/2023,19:05:32.672,-814,-68,-28,-202,672,156,499,-136,589,29.600000,47.200001,979.679993
16/06/2023,19:05:32.682,-855,-38,-79,-202,672,156,486,-150,579,29.600000,47.200001,979.679993
16/06/2023,19:05:32.691,-884,-23,-112,-149,590,109,492,-135,592,29.600000,47.200001,979.679993
16/06/2023,19:05:32.701,-899,-10,-127,-28,485,67,498,-138,582,29.600000,47.200001,979.679993
16/06/2023,19:05:32.710,-905,-10,-114,119,428,30,499,-132,589,29.600000,47.200001,979.679993
16/06/2023,19:05:32.720,-924,-22,-95,247,406,11,493,-132,601,29.600000,47.200001,979.679993
16/06/2023,19:05:32.729,-958,-60,-70,338,407,-7,499,-129,601,29.600000,47.200001,979.679993
16/06/2023,19:05:32.738,-999,-118,-41,363,417,-23,510,-123,585,29.600000,47.200001,979.679993
16/06/2023,19:05:32.747,-999,-118,-41,370,436,-41,493,-124,588,29.600000,47.200001,979.679993
16/06/2023,19:05:32.756,-1033,-179,-15,321,418,-66,493,-124,588,29.600000,47.200001,979.679993
16/06/2023,19:05:32.766,-1038,-236,-8,210,345,-57,498,-115,592,29.600000,47.200001,979.679993
16/06/2023,19:05:32.776,-1031,-269,-35,107,254,-45,498,-108,600,29.600000,47.200001,979.679993
16/06/2023,19:05:32.785,-1011,-295,-66,61,191,-28,501,-96,613,29.600000,47.200001,979.679993
16/06/2023,19:05:32.794,-985,-311,-91,37,183,-4,495,-108,594,29.600000,47.200001,979.679993
16/06/2023,19:05:32.804,-977,-309,-108,67,213,-27,510,-99,601,29.600000,47.200001,979.679993
16/06/2023,19:05:32.813,-986,-311,-110,143,239,-33,495,-94,595,29.600000,47.200001,979.679993
16/06/2023,19:05:32.823,-1023,-291,-96,223,311,-16,505,-102,610,29.600000,47.200001,979.679993
16/06/2023,19:05:32.832,-1088,-263,-35,274,420,-27,511,-88,601,29.600000,47.200001,979.679993
16/06/2023,19:05:32.841,-1165,-230,68,286,485,-24,520,-75,594,29.600000,47.200001,979.679993
16/06/2023,19:05:32.850,-1217,-187,203,298,402,-38,520,-75,594,29.600000,47.200001,979.679993
16/06/2023,19:05:32.859,-1236,-168,342,292,150,-71,502,-85,607,29.600000,47.200001,979.679993
16/06/2023,19:05:32.869,-1229,-221,390,194,-151,-110,513,-85,610,29.600000,47.200001,979.679993
16/06/2023,19:05:32.879,-1235,-358,355,1,-398,-114,525,-76,612,29.600000,47.200001,979.679993
16/06/2023,19:05:32.888,-1301,-497,305,-242,-643,-57,519,-64,607,29.600000,47.200001,979.679993
16/06/2023,19:05:32.898,-1399,-562,250,-382,-796,11,541,-78,595,29.600000,47.200001,979.679993
16/06/2023,19:05:32.907,-1428,-570,203,-435,-854,27,538,-69,598,29.600000,47.200001,979.679993
16/06/2023,19:05:32.916,-1305,-542,208,-494,-932,71,540,-67,598,29.600000,47.200001,979.679993
16/06/2023,19:05:32.926,-1150,-469,273,-614,-1097,117,537,-64,604,29.600000,47.200001,979.679993
16/06/2023,19:05:32.935,-1093,-399,344,-757,-1406,161,555,-78,574,29.600000,47.200001,979.679993
16/06/2023,19:05:32.944,-1078,-354,243,-934,-1647,196,555,-78,574,29.600000,47.200001,979.679993
16/06/2023,19:05:32.953,-1020,-343,-40,-1136,-1625,216,565,-75,558,29.600000,47.200001,979.679993
16/06/2023,19:05:32.963,-996,-314,-335,-1361,-1412,200,562,-57,571,29.600000,47.200001,979.679993
16/06/2023,19:05:32.972,-1057,-227,-569,-1502,-1248,106,601,-85,556,29.600000,47.200001,979.679993
16/06/2023,19:05:32.982,-1113,-159,-727,-1614,-1106,-77,586,-63,556,29.600000,47.200001,979.679993
16/06/2023,19:05:32.991,-1210,-17,-863,-1519,-900,-388,595,-69,532,29.600000,47.200001,979.679993
16/06/2023,19:05:33.001,-1303,94,-844,-1072,-814,-782,607,-99,531,29.600000,47.200001,979.679993
16/06/2023,19:05:33.010,-1275,37,-718,-403,-848,-945,601,-52,508,29.600000,47.200001,979.679993
16/06/2023,19:05:33.019,-1247,-69,-505,-403,-848,-945,616,-54,504,29.600000,47.200001,979.679993
16/06/2023,19:05:33.029,-1330,-216,-34,308,-769,-632,619,-57,525,29.600000,47.200001,979.679993
16/06/2023,19:05:33.037,-1469,-351,507,584,-730,-169,619,-57,525,29.600000,47.200001,979.679993
16/06/2023,19:05:33.047,-1418,-448,638,-75,-917,15,621,-58,498,29.600000,47.200001,979.679993
16/06/2023,19:05:33.057,-1317,-210,281,-1222,-1221,73,618,-58,483,29.600000,47.200001,979.679993
16/06/2023,19:05:33.066,-1183,92,-38,-1598,-1502,2,624,-51,484,29.600000,47.200001,979.679993
16/06/2023,19:05:33.076,-882,28,-174,-1526,-1443,-252,636,-55,481,29.600000,47.200001,979.679993
16/06/2023,19:05:33.085,-718,-40,-316,-1406,-1282,-221,643,-48,466,29.600000,47.200001,979.679993
16/06/2023,19:05:33.094,-718,-36,-316,-1211,-1061,65,634,-51,466,29.600000,47.200001,979.679993
16/06/2023,19:05:33.104,-671,-36,-328,-892,-899,251,636,-66,465,29.600000,47.200001,979.679993
16/06/2023,19:05:33.113,-646,-2,-176,-726,-779,296,637,-69,442,29.600000,47.200001,979.679993
16/06/2023,19:05:33.122,-670,49,-78,-742,-689,282,636,-81,459,29.600000,47.200001,979.679993
16/06/2023,19:05:33.131,-683,54,-87,-798,-593,242,636,-81,459,29.600000,47.200001,979.679993
16/06/2023,19:05:33.140,-699,23,-122,-828,-515,200,637,-67,451,29.600000,47.200001,979.679993
16/06/2023,19:05:33.150,-721,-15,-140,-800,-449,197,648,-61,453,29.600000,47.200001,979.679993
16/06/2023,19:05:33.160,-702,-40,-145,-725,-379,205,663,-52,429,29.600000,47.200001,979.679993
16/06/2023,19:05:33.169,-670,-60,-118,-665,-298,251,624,-75,441,29.600000,47.200001,979.679993
16/06/2023,19:05:33.188,-657,20,-96,-609,-207,310,643,-90,420,29.600000,47.200001,979.679993
16/06/2023,19:05:33.197,-635,61,-74,-534,-127,297,649,-70,420,29.600000,47.200001,979.679993
16/06/2023,19:05:33.207,-614,96,-13,-486,-67,277,660,-72,426,29.600000,47.200001,979.679993
16/06/2023,19:05:33.216,-580,94,57,-485,-17,242,645,-76,433,29.600000,47.200001,979.679993
16/06/2023,19:05:33.225,-570,92,117,-490,76,188,645,-76,433,29.600000,47.200001,979.679993
16/06/2023,19:05:33.234,-586,105,166,-495,202,141,663,-72,423,29.600000,47.200001,979.679993
16/06/2023,19:05:33.244,-602,101,207,-513,277,95,652,-75,421,29.600000,47.200001,979.679993
16/06/2023,19:05:33.254,-643,29,216,-436,426,68,658,-93,435,29.600000,47.200001,979.679993
16/06/2023,19:05:33.263,-769,-59,264,-311,545,42,639,-69,423,29.600000,47.200001,979.679993
16/06/2023,19:05:33.272,-921,-61,324,-224,560,13,630,-69,433,29.600000,47.200001,979.679993
16/06/2023,19:05:33.282,-1065,-124,459,-229,543,-40,649,-67,441,29.600000,47.200001,979.679993
16/06/2023,19:05:33.291,-1207,-198,597,-406,469,-103,649,-75,447,29.600000,47.200001,979.679993
16/06/2023,19:05:33.300,-1310,-208,659,-478,383,-102,639,-79,450,29.600000,47.200001,979.679993
16/06/2023,19:05:33.309,-1389,-246,725,-473,253,-11,639,-79,450,29.600000,47.200001,979.679993
16/06/2023,19:05:33.319,-1364,-319,774,-513,85,137,654,-87,447,29.600000,47.200001,979.679993
16/06/2023,19:05:33.328,-1296,-346,772,-604,-75,297,636,-58,466,29.600000,47.200001,979.679993
16/06/2023,19:05:33.341,-1195,-283,656,-661,-247,373,645,-75,456,29.600000,47.200001,979.679993
16/06/2023,19:05:33.347,-973,-217,469,-630,-286,406,640,-85,478,29.600000,47.200001,979.679993
16/06/2023,19:05:33.357,-781,-138,258,-477,-182,429,645,-90,444,29.600000,47.200001,979.679993
16/06/2023,19:05:33.366,-867,51,80,-157,65,393,655,-84,445,29.600000,47.500000,979.900024
16/06/2023,19:05:33.375,-1149,153,-56,-157,65,393,648,-94,441,29.600000,47.500000,979.900024
16/06/2023,19:05:33.385,-1391,186,-137,228,567,213,642,-85,462,29.600000,47.500000,979.900024
16/06/2023,19:05:33.393,-1503,324,-272,505,733,-73,642,-85,462,29.600000,47.500000,979.900024
16/06/2023,19:05:33.403,-1522,411,-390,775,656,-417,634,-69,459,29.600000,47.500000,979.900024
16/06/2023,19:05:33.413,-1448,380,-278,1000,603,-576,630,-72,454,29.600000,47.500000,979.900024
16/06/2023,19:05:33.422,-1220,219,-55,1023,588,-664,654,-76,468,29.600000,47.500000,979.900024
16/06/2023,19:05:33.432,-972,101,50,772,499,-490,645,-55,469,29.600000,47.500000,979.900024
16/06/2023,19:05:33.441,-972,101,50,402,245,-260,639,-66,492,29.600000,47.500000,979.900024
16/06/2023,19:05:33.450,-742,68,50,78,-7,-248,646,-61,481,29.600000,47.500000,979.900024
16/06/2023,19:05:33.460,-518,2,39,-231,-118,-270,654,-51,460,29.600000,47.500000,979.900024
16/06/2023,19:05:33.469,-381,-25,-46,-515,-38,-276,664,-61,489,29.600000,47.500000,979.900024
16/06/2023,19:05:33.478,-346,-2,-159,-642,193,-315,642,-33,484,29.600000,47.500000,979.900024
16/06/2023,19:05:33.487,-377,-14,-232,-687,395,-421,642,-33,484,29.600000,47.500000,979.900024
16/06/2023,19:05:33.497,-438,-69,-287,-782,616,-559,645,-51,483,29.600000,47.500000,979.900024
16/06/2023,19:05:33.506,-564,-168,-416,-891,1031,-645,648,-49,502,29.600000,47.500000,979.900024
16/06/2023,19:05:33.516,-770,-266,-491,-1063,1235,-549,651,-42,505,29.600000,47.500000,979.900024
16/06/2023,19:05:33.525,-971,-308,-527,-1389,1093,-436,636,-43,502,29.600000,47.500000,979.900024
16/06/2023,19:05:33.535,-1180,-349,-537,-1073,1176,-228,636,-31,510,29.600000,47.500000,979.900024
16/06/2023,19:05:33.544,-1383,-456,-353,-158,1206,211,612,-57,534,29.600000,47.500000,979.900024
16/06/2023,19:05:33.553,-1461,-535,-123,784,987,641,636,-36,534,29.600000,47.500000,979.900024
16/06/2023,19:05:33.563,-1425,-503,17,1383,750,699,633,-49,556,29.600000,47.500000,979.900024
16/06/2023,19:05:33.572,-1322,-481,103,1495,580,591,621,-49,538,29.600000,47.500000,979.900024
16/06/2023,19:05:33.581,-1208,-471,163,1271,411,551,621,-49,538,29.600000,47.500000,979.900024
16/06/2023,19:05:33.591,-1118,-425,158,910,347,549,631,-37,553,29.600000,47.500000,979.900024
16/06/2023,19:05:33.600,-1037,-363,151,531,437,534,616,-28,544,29.600000,47.500000,979.900024
16/06/2023,19:05:33.610,-960,-278,154,187,475,429,618,-34,538,29.600000,47.500000,979.900024
16/06/2023,19:05:33.619,-863,-193,116,-105,492,309,613,-52,559,29.600000,47.500000,979.900024
16/06/2023,19:05:33.628,-792,-123,66,-356,578,236,609,-52,570,29.600000,47.500000,979.900024
16/06/2023,19:05:33.638,-780,-52,39,-573,671,202,616,-58,565,29.600000,47.500000,979.900024
16/06/2023,19:05:33.647,-814,30,-20,-693,707,163,618,-46,568,29.600000,47.500000,979.900024
16/06/2023,19:05:33.656,-850,87,-105,-615,671,99,616,-36,582,29.600000,47.500000,979.900024
16/06/2023,19:05:33.665,-870,110,-173,-412,596,41,616,-36,582,29.600000,47.500000,979.900024
16/06/2023,19:05:33.675,-884,124,-201,-203,544,-20,597,-63,573,29.600000,47.500000,979.900024
16/06/2023,19:05:33.684,-888,124,-188,-37,486,-65,600,-51,576,29.600000,47.500000,979.900024
16/06/2023,19:05:33.694,-892,86,-150,14,446,-92,594,-66,583,29.600000,47.500000,979.900024
16/06/2023,19:05:33.703,-921,30,-112,-50,414,-123,588,-57,586,29.600000,47.500000,979.900024
16/06/2023,19:05:33.713,-956,-31,-108,-50,414,-123,595,-54,591,29.600000,47.500000,979.900024
16/06/2023,19:05:33.722,-977,-103,-108,-148,410,-142,591,-84,604,29.600000,47.500000,979.900024
16/06/2023,19:05:33.731,-982,-175,-91,-240,427,-141,583,-49,601,29.600000,47.500000,979.900024
16/06/2023,19:05:33.741,-986,-230,-73,-332,439,-111,600,-57,598,29.600000,47.500000,979.900024
16/06/2023,19:05:33.750,-995,-261,-63,-422,465,-64,582,-51,624,29.600000,47.500000,979.900024
16/06/2023,19:05:33.759,-994,-289,-49,-474,498,-23,582,-51,624,29.600000,47.500000,979.900024
16/06/2023,19:05:33.768,-994,-289,-49,-500,551,9,585,-55,588,29.600000,47.500000,979.900024
16/06/2023,19:05:33.778,-1005,-287,61,-497,628,17,591,-67,603,29.600000,47.500000,979.900024
16/06/2023,19:05:33.788,-1005,-287,61,-445,602,37,582,-75,615,29.600000,47.500000,979.900024
16/06/2023,19:05:33.806,-1073,-218,120,-311,374,12,561,-75,633,29.600000,47.500000,979.900024
16/06/2023,19:05:33.816,-1100,-175,87,-236,223,-13,577,-51,613,29.600000,47.500000,979.900024
16/06/2023,19:05:33.825,-1133,-153,37,-144,74,-35,568,-60,618,29.600000,47.500000,979.900024
16/06/2023,19:05:33.834,-1131,-161,-5,-80,21,-48,576,-72,625,29.600000,47.500000,979.900024
16/06/2023,19:05:33.844,-1125,-187,-30,-81,14,-71,580,-66,621,29.600000,47.500000,979.900024
16/06/2023,19:05:33.856,-1128,-239,-16,-135,10,-86,580,-66,621,29.600000,47.500000,979.900024
16/06/2023,19:05:33.863,-1118,-286,43,-218,12,-73,568,-67,627,29.600000,47.500000,979.900024
16/06/2023,19:05:33.872,-1141,-310,166,-336,-38,-51,573,-63,624,29.600000,47.500000,979.900024
16/06/2023,19:05:33.881,-1200,-365,321,-502,-230,-18,561,-75,627,29.600000,47.500000,979.900024
16/06/2023,19:05:33.891,-1297,-419,415,-649,-520,-3,583,-85,628,29.600000,47.500000,979.900024
16/06/2023,19:05:33.900,-1387,-443,385,-753,-696,-14,598,-73,621,29.600000,47.500000,979.900024
16/06/2023,19:05:33.909,-1361,-463,299,-809,-792,-61,576,-81,616,29.600000,47.500000,979.900024
16/06/2023,19:05:33.919,-1230,-454,235,-803,-961,-56,601,-55,598,29.600000,47.500000,979.900024
16/06/2023,19:05:33.928,-1131,-419,217,-795,-1165,-39,606,-78,598,29.600000,47.500000,979.900024
16/06/2023,19:05:33.937,-1114,-403,237,-832,-1389,-43,606,-78,598,29.600000,47.500000,979.900024
16/06/2023,19:05:33.946,-1096,-383,159,-888,-1519,-67,591,-90,585,29.600000,47.500000,979.900024
16/06/2023,19:05:33.956,-1053,-393,-39,-1023,-1516,-38,622,-88,571,29.600000,47.500000,979.900024
16/06/2023,19:05:33.966,-1011,-410,-222,-1262,-1424,-48,598,-91,574,29.600000,47.500000,979.900024
16/06/2023,19:05:33.975,-1052,-341,-430,-1483,-1289,-102,621,-103,550,29.600000,47.500000,979.900024
16/06/2023,19:05:33.984,-1148,-262,-622,-1615,-1116,-235,621,-102,541,29.600000,47.500000,979.900024
16/06/2023,19:05:33.994,-1170,-259,-715,-1596,-1082,-313,615,-99,532,29.600000,47.500000,979.900024
16/06/2023,19:05:34.003,-1159,-303,-731,-1367,-900,-324,628,-96,526,29.600000,47.500000,979.900024
16/06/2023,19:05:34.012,-1197,-352,-594,-897,-833,-321,631,-111,510,29.600000,47.500000,979.900024
16/06/2023,19:05:34.021,-1218,-468,-355,-356,-779,-211,631,-111,510,29.600000,47.500000,979.900024
16/06/2023,19:05:34.031,-1261,-642,-54,-115,-621,40,643,-106,496,29.600000,47.500000,979.900024
16/06/2023,19:05:34.041,-1372,-771,250,-330,-631,256,636,-97,504,29.600000,47.500000,979.900024
16/06/2023,19:05:34.050,-1436,-657,425,-885,-921,361,648,-105,490,29.600000,47.500000,979.900024
16/06/2023,19:05:34.059,-1393,-351,358,-885,-921,361,649,-93,498,29.600000,47.500000,979.900024
16/06/2023,19:05:34.069,-1185,-179,117,-1634,-1168,42,655,-109,480,29.600000,47.500000,979.900024
16/06/2023,19:05:34.078,-959,-135,-219,-2021,-1148,-175,645,-117,454,29.600000,47.500000,979.900024
16/06/2023,19:05:34.087,-845,-94,-389,-2128,-1027,87,657,-118,450,29.600000,47.500000,979.900024
16/06/2023,19:05:34.100,-763,-60,-288,-1875,-922,300,655,-124,441,29.600000,47.500000,979.900024
16/06/2023,19:05:34.106,-710,-13,-150,-1633,-827,357,652,-132,441,29.600000,47.500000,979.900024
16/06/2023,19:05:34.115,-710,-13,-150,-1555,-733,344,652,-132,441,29.600000,47.500000,979.900024
16/06/2023,19:05:34.124,-675,26,-108,-1579,-644,321,652,-136,418,29.600000,47.500000,979.900024
16/06/2023,19:05:34.134,-638,19,-154,-1600,-551,298,654,-153,417,29.600000,47.500000,979.900024
16/06/2023,19:05:34.144,-621,2,-186,-1577,-427,335,661,-148,414,29.600000,47.500000,979.900024
16/06/2023,19:05:34.153,-624,19,-207,-1481,-315,371,648,-156,400,29.600000,47.500000,979.900024
16/06/2023,19:05:34.162,-623,21,-179,-1389,-224,394,643,-135,402,29.600000,47.500000,979.900024
16/06/2023,19:05:34.172,-599,-1,-145,-1325,-163,392,642,-168,393,29.600000,47.500000,979.900024
16/06/2023,19:05:34.181,-573,0,-116,-1245,-93,390,663,-148,378,29.600000,47.500000,979.900024
16/06/2023,19:05:34.190,-554,10,-91,-1155,-10,384,651,-162,415,29.600000,47.500000,979.900024
16/06/2023,19:05:34.200,-557,67,-61,-1063,54,361,645,-181,385,29.600000,47.500000,979.900024
16/06/2023,19:05:34.209,-595,78,-51,-964,139,313,645,-181,385,29.600000,47.500000,979.900024
16/06/2023,19:05:34.218,-656,30,-37,-842,213,297,645,-175,372,29.600000,47.500000,979.900024
16/06/2023,19:05:34.228,-716,23,35,-747,270,286,648,-178,379,29.600000,47.500000,979.900024
16/06/2023,19:05:34.237,-761,46,109,-679,311,264,654,-187,379,29.600000,47.500000,979.900024
16/06/2023,19:05:34.250,-788,68,167,-628,340,246,643,-180,379,29.600000,47.500000,979.900024
16/06/2023,19:05:34.256,-806,56,219,-540,377,224,637,-183,382,29.600000,47.500000,979.900024
16/06/2023,19:05:34.265,-846,28,245,-439,430,222,652,-193,373,29.600000,47.500000,979.900024
16/06/2023,19:05:34.275,-907,-3,242,-330,500,237,642,-186,394,29.600000,47.500000,979.900024
16/06/2023,19:05:34.284,-988,-32,241,-232,522,262,634,-184,373,29.600000,47.500000,979.900024
16/06/2023,19:05:34.293,-1067,-33,277,-143,470,256,642,-202,375,29.600000,47.500000,979.900024
16/06/2023,19:05:34.302,-1134,-17,353,-132,381,200,642,-202,375,29.600000,47.500000,979.900024
16/06/2023,19:05:34.312,-1208,-5,454,-205,287,155,627,-183,397,29.600000,47.500000,979.900024
16/06/2023,19:05:34.322,-1289,-26,579,-362,184,128,642,-196,378,29.600000,47.500000,979.900024
16/06/2023,19:05:34.331,-1321,-85,603,-550,55,155,642,-207,382,29.600000,47.500000,979.900024
16/06/2023,19:05:34.340,-1272,-175,547,-647,-35,225,648,-207,379,29.600000,47.500000,979.900024
16/06/2023,19:05:34.359,-978,-130,397,-622,-219,319,631,-208,402,29.600000,47.500000,979.900024
16/06/2023,19:05:34.368,-872,-106,278,-559,-140,280,630,-231,376,29.600000,47.500000,979.900024
16/06/2023,19:05:34.378,-779,-132,209,-483,-40,247,630,-231,376,29.600000,47.500000,979.900024
16/06/2023,19:05:34.387,-731,-120,134,-483,-40,247,645,-207,367,29.600000,47.500000,979.900024
16/06/2023,19:05:34.396,-927,3,-7,-113,392,163,645,-207,367,29.600000,47.500000,979.900024
16/06/2023,19:05:34.405,-1268,91,-112,-113,392,163,619,-238,382,29.600000,47.500000,979.900024
16/06/2023,19:05:34.425,-1565,265,-332,308,800,-268,634,-216,393,29.600000,47.500000,979.809998
16/06/2023,19:05:34.434,-1485,254,-285,430,678,-446,627,-208,408,29.600000,47.500000,979.809998
16/06/2023,19:05:34.443,-1337,158,-83,474,703,-536,649,-223,396,29.600000,47.500000,979.809998
16/06/2023,19:05:34.453,-1206,157,11,443,641,-412,654,-211,399,29.600000,47.500000,979.809998
16/06/2023,19:05:34.462,-981,160,67,390,422,-246,642,-223,424,29.600000,47.500000,979.809998
16/06/2023,19:05:34.471,-751,149,96,361,182,-219,624,-213,432,29.600000,47.500000,979.809998
16/06/2023,19:05:34.481,-751,149,96,260,112,-237,633,-213,418,29.600000,47.500000,979.809998
16/06/2023,19:05:34.490,-604,157,11,123,235,-283,633,-213,418,29.600000,47.500000,979.809998
16/06/2023,19:05:34.499,-548,166,-139,6,443,-292,648,-217,409,29.600000,47.500000,979.809998
16/06/2023,19:05:34.509,-577,145,-248,-64,591,-316,639,-226,423,29.600000,47.500000,979.809998
16/06/2023,19:05:34.518,-614,90,-313,-15,724,-334,634,-208,433,29.600000,47.500000,979.809998
16/06/2023,19:05:34.528,-693,-1,-316,4,798,-294,631,-198,450,29.600000,47.500000,979.809998
16/06/2023,19:05:34.537,-846,-134,-261,-212,796,-222,654,-201,439,29.600000,47.500000,979.809998
16/06/2023,19:05:34.546,-1018,-259,-242,-707,659,-74,631,-219,447,29.600000,47.500000,979.809998
16/06/2023,19:05:34.556,-1146,-360,-259,-1301,578,65,646,-201,462,29.600000,47.500000,979.809998
16/06/2023,19:05:34.565,-1192,-427,-266,-1719,641,122,642,-213,445,29.600000,47.500000,979.809998
16/06/2023,19:05:34.575,-1145,-473,-271,-1710,798,84,639,-219,441,29.600000,47.500000,979.809998
16/06/2023,19:05:34.583,-1062,-549,-194,-1022,933,67,639,-219,441,29.600000,47.500000,979.809998
16/06/2023,19:05:34.593,-1037,-604,-58,-121,758,188,639,-210,454,29.600000,47.500000,979.809998
16/06/2023,19:05:34.603,-1046,-601,-15,449,531,312,621,-216,465,29.600000,47.500000,979.809998
16/06/2023,19:05:34.612,-1022,-574,-32,559,484,388,624,-223,459,29.600000,47.500000,979.809998
16/06/2023,19:05:34.621,-960,-518,-28,403,600,399,630,-226,472,29.600000,47.500000,979.809998
16/06/2023,19:05:34.631,-896,-431,-10,287,685,421,618,-219,477,29.600000,47.500000,979.809998
16/06/2023,19:05:34.640,-844,-342,10,195,653,408,613,-225,487,29.600000,47.500000,979.809998
16/06/2023,19:05:34.649,-796,-271,19,104,606,387,613,-210,490,29.600000,47.500000,979.809998
16/06/2023,19:05:34.659,-787,-196,12,-61,699,384,613,-226,493,29.600000,47.500000,979.809998
16/06/2023,19:05:34.668,-844,-79,-15,-181,767,335,586,-226,514,29.600000,47.500000,979.809998
16/06/2023,19:05:34.677,-896,30,-39,-196,760,276,586,-226,514,29.600000,47.500000,979.809998
16/06/2023,19:05:34.686,-931,102,-35,-152,659,238,598,-250,486,29.600000,47.500000,979.809998
16/06/2023,19:05:34.696,-980,153,-43,-25,534,181,595,-250,504,29.600000,47.500000,979.809998
16/06/2023,19:05:34.706,-997,156,-30,80,456,142,615,-234,504,29.600000,47.500000,979.809998
16/06/2023,19:05:34.715,-994,116,30,26,439,118,604,-238,508,29.600000,47.500000,979.809998
16/06/2023,19:05:34.724,-994,64,64,-176,369,66,573,-238,496,29.600000,47.500000,979.809998
16/06/2023,19:05:34.734,-987,-13,1,-339,295,5,594,-262,517,29.600000,47.500000,979.809998
16/06/2023,19:05:34.743,-958,-118,-80,-375,264,-14,594,-240,492,29.600000,47.500000,979.809998
16/06/2023,19:05:34.753,-927,-197,-134,-375,264,-14,594,-246,522,29.600000,47.500000,979.809998
16/06/2023,19:05:34.762,-927,-236,-190,-361,257,-8,597,-267,519,29.600000,47.500000,979.809998
16/06/2023,19:05:34.771,-948,-250,-229,-299,264,2,597,-267,519,29.600000,47.500000,979.809998
16/06/2023,19:05:34.780,-970,-244,-237,-173,292,14,577,-265,508,29.600000,47.500000,979.809998
16/06/2023,19:05:34.790,-987,-217,-231,0,308,23,583,-249,519,29.600000,47.500000,979.809998
16/06/2023,19:05:34.799,-1010,-194,-209,203,305,30,597,-243,537,29.600000,47.500000,979.809998
16/06/2023,19:05:34.809,-1031,-194,-162,400,308,30,577,-232,532,29.600000,47.500000,979.809998
16/06/2023,19:05:34.818,-1031,-192,-130,502,289,54,586,-256,540,29.600000,47.500000,979.809998
16/06/2023,19:05:34.828,-1047,-192,-126,516,290,35,559,-259,550,29.600000,47.500000,979.809998
16/06/2023,19:05:34.837,-1053,-206,-99,460,285,31,559,-250,546,29.600000,47.500000,979.809998
16/06/2023,19:05:34.846,-1054,-239,-63,319,305,36,576,-235,556,29.600000,47.500000,979.809998
16/06/2023,19:05:34.856,-1056,-268,-36,112,339,40,565,-244,552,29.600000,47.500000,979.809998
16/06/2023,19:05:34.864,-1060,-301,-15,-125,366,13,565,-244,552,29.600000,47.500000,979.809998
16/06/2023,19:05:34.874,-1060,-338,-3,-378,374,-26,562,-247,556,29.600000,47.500000,979.809998
16/06/2023,19:05:34.884,-1043,-350,-22,-580,424,-51,562,-247,556,29.600000,47.500000,979.809998
16/06/2023,19:05:34.893,-1052,-319,44,-679,636,-72,573,-265,550,29.600000,47.500000,979.809998
16/06/2023,19:05:34.902,-1128,-290,314,-720,618,-90,573,-244,549,29.600000,47.500000,979.809998
16/06/2023,19:05:34.912,-1240,-339,514,-729,244,-124,553,-267,556,29.600000,47.500000,979.809998
16/06/2023,19:05:34.921,-1310,-486,458,-681,-168,-117,553,-282,559,29.600000,47.500000,979.809998
16/06/2023,19:05:34.931,-1387,-629,297,-590,-478,-76,567,-256,556,29.600000,47.500000,979.809998
16/06/2023,19:05:34.940,-1414,-705,111,-584,-689,-49,567,-255,562,29.600000,47.500000,979.809998
16/06/2023,19:05:34.949,-1340,-680,-10,-751,-717,-29,567,-255,562,29.600000,47.500000,979.809998
16/06/2023,19:05:34.958,-1253,-575,73,-962,-757,-18,552,-232,535,29.600000,47.500000,979.809998
16/06/2023,19:05:34.968,-1186,-449,324,-1176,-836,-2,577,-271,534,29.600000,47.500000,979.809998
16/06/2023,19:05:34.977,-1127,-303,479,-1380,-1022,12,586,-267,528,29.600000,47.500000,979.809998
16/06/2023,19:05:34.987,-1123,-204,386,-1541,-1289,25,571,-270,501,29.600000,47.500000,979.809998
16/06/2023,19:05:34.996,-1164,-160,116,-1628,-1479,-13,586,-268,478,29.600000,47.500000,979.809998
16/06/2023,19:05:35.006,-1159,-137,-193,-1571,-1443,-113,568,-286,489,29.600000,47.500000,979.809998
16/06/2023,19:05:35.015,-1114,-152,-433,-1549,-1285,-218,592,-270,468,29.600000,47.500000,979.809998
16/06/2023,19:05:35.034,-1150,-85,-831,-1687,-1020,-529,592,-277,436,29.600000,47.500000,979.809998
16/06/2023,19:05:35.042,-1162,-42,-896,-1466,-1190,-760,592,-277,436,29.600000,47.500000,979.809998
16/06/2023,19:05:35.052,-1151,-24,-835,-847,-1321,-868,600,-277,430,29.600000,47.500000,979.809998
16/06/2023,19:05:35.062,-1097,-109,-569,-178,-1178,-725,612,-268,426,29.600000,47.500000,979.809998
16/06/2023,19:05:35.071,-1143,-193,-193,234,-998,-284,606,-277,415,29.600000,47.500000,979.809998
16/06/2023,19:05:35.080,-1344,-242,166,127,-887,94,598,-253,423,29.600000,47.500000,979.809998
16/06/2023,19:05:35.090,-1534,-339,402,127,-887,94,598,-253,423,29.600000,47.500000,979.809998
16/06/2023,19:05:35.099,-1536,-434,395,-517,-1063,227,601,-259,399,29.600000,47.500000,979.809998
16/06/2023,19:05:35.109,-1326,-330,154,-1372,-1478,304,622,-256,382,29.600000,47.500000,979.809998
16/06/2023,19:05:35.118,-1018,-161,-170,-1960,-1653,261,598,-273,372,29.600000,47.500000,979.809998
16/06/2023,19:05:35.127,-807,-142,-309,-1809,-1492,127,615,-268,364,29.600000,47.500000,979.809998
16/06/2023,19:05:35.136,-771,-157,-220,-1395,-1193,201,615,-268,364,29.600000,47.500000,979.809998
16/06/2023,19:05:35.145,-771,-157,-220,-1090,-1086,313,619,-276,351,29.600000,47.500000,979.809998
16/06/2023,19:05:35.155,-657,-45,-122,-961,-988,354,613,-252,327,29.600000,47.500000,979.809998
16/06/2023,19:05:35.165,-657,-45,-122,-877,-821,301,621,-264,313,29.600000,47.500000,979.809998
16/06/2023,19:05:35.174,-589,13,-119,-854,-674,312,598,-258,297,29.600000,47.500000,979.809998
16/06/2023,19:05:35.184,-571,53,-139,-861,-577,291,613,-274,307,29.600000,47.500000,979.809998
16/06/2023,19:05:35.193,-560,88,-167,-868,-477,259,600,-273,286,29.600000,47.500000,979.809998
16/06/2023,19:05:35.202,-560,121,-145,-831,-404,254,606,-274,292,29.600000,47.500000,979.809998
16/06/2023,19:05:35.212,-551,151,-113,-758,-321,232,603,-268,280,29.600000,47.500000,979.809998
16/06/2023,19:05:35.224,-522,156,-96,-704,-232,184,597,-268,279,29.600000,47.500000,979.809998
16/06/2023,19:05:35.230,-523,110,-88,-624,-122,174,597,-268,279,29.600000,47.500000,979.809998
16/06/2023,19:05:35.239,-550,80,-76,-507,-32,183,582,-265,304,29.600000,47.500000,979.809998
16/06/2023,19:05:35.249,-559,99,-52,-390,41,177,589,-294,285,29.600000,47.500000,979.809998
16/06/2023,19:05:35.258,-563,107,-20,-291,123,161,598,-265,283,29.600000,47.500000,979.809998
16/06/2023,19:05:35.268,-582,114,30,-213,189,144,603,-274,265,29.600000,47.500000,979.809998
16/06/2023,19:05:35.277,-620,124,95,-156,248,122,591,-265,291,29.600000,47.500000,979.809998
16/06/2023,19:05:35.287,-665,119,184,-99,302,98,586,-273,273,29.600000,47.500000,979.809998
16/06/2023,19:05:35.296,-713,84,269,-78,355,65,583,-283,288,29.600000,47.500000,979.809998
16/06/2023,19:05:35.305,-775,22,319,-61,427,32,594,-279,280,29.600000,47.500000,979.809998
16/06/2023,19:05:35.315,-870,-63,355,-5,548,16,603,-277,304,29.600000,47.500000,979.809998
16/06/2023,19:05:35.323,-987,-110,328,72,624,-11,603,-277,304,29.600000,47.500000,979.809998
16/06/2023,19:05:35.333,-1115,-116,335,178,681,-27,595,-270,312,29.600000,47.500000,979.809998
16/06/2023,19:05:35.343,-1257,-156,469,85,602,-40,598,-285,316,29.600000,47.500000,979.809998
16/06/2023,19:05:35.352,-1359,-179,613,-90,424,-56,595,-267,313,29.600000,47.500000,979.809998
16/06/2023,19:05:35.362,-1406,-188,705,-256,199,-41,606,-264,309,29.600000,47.500000,979.809998
16/06/2023,19:05:35.371,-1445,-238,755,-461,12,24,603,-268,318,29.600000,47.500000,979.809998
16/06/2023,19:05:35.380,-1384,-293,753,-603,-216,186,616,-277,310,29.600000,47.500000,979.809998
16/06/2023,19:05:35.390,-1202,-287,594,-654,-346,288,598,-255,312,29.600000,47.500000,979.809998
16/06/2023,19:05:35.399,-1035,-209,381,-566,-310,353,616,-265,297,29.600000,47.500000,979.809998
16/06/2023,19:05:35.408,-916,-103,284,-416,-203,365,598,-292,321,29.600000,47.500000,979.809998
16/06/2023,19:05:35.417,-803,-21,248,-256,-105,353,598,-292,321,29.600000,47.500000,979.809998
16/06/2023,19:05:35.427,-715,54,184,-40,24,308,568,-264,325,29.600000,47.500000,979.809998
16/06/2023,19:05:35.436,-858,208,78,-40,24,308,568,-264,325,29.600000,47.500000,979.809998
16/06/2023,19:05:35.446,-1072,236,-25,326,228,203,597,-277,313,29.600000,47.500000,979.809998
16/06/2023,19:05:35.455,-1166,181,-86,672,618,-10,604,-270,331,29.600000,47.099998,979.830017
16/06/2023,19:05:35.465,-1269,231,-183,888,746,-241,600,-282,333,29.600000,47.099998,979.830017
16/06/2023,19:05:35.474,-1333,258,-298,1029,682,-440,595,-280,334,29.600000,47.099998,979.830017
16/06/2023,19:05:35.483,-1289,243,-312,1068,653,-562,597,-286,343,29.600000,47.099998,979.830017
16/06/2023,19:05:35.493,-1191,190,-182,1027,679,-614,610,-282,372,29.600000,47.099998,979.830017
16/06/2023,19:05:35.501,-1191,190,-182,896,685,-572,610,-282,372,29.600000,47.099998,979.830017
16/06/2023,19:05:35.511,-1106,106,32,627,544,-399,627,-282,367,29.600000,47.099998,979.830017
16/06/2023,19:05:35.521,-998,33,157,370,307,-306,630,-283,373,29.600000,47.099998,979.830017
16/06/2023,19:05:35.530,-833,-29,142,118,171,-297,619,-274,373,29.600000,47.099998,979.830017
16/06/2023,19:05:35.540,-680,-61,29,-62,217,-298,630,-279,378,29.600000,47.099998,979.830017
16/06/2023,19:05:35.549,-613,-75,-90,-67,330,-339,630,-282,387,29.600000,47.099998,979.830017
16/06/2023,19:05:35.558,-606,-157,-169,21,524,-415,633,-276,393,29.600000,47.099998,979.830017
16/06/2023,19:05:35.568,-654,-259,-252,-30,694,-412,628,-270,400,29.600000,47.099998,979.830017
16/06/2023,19:05:35.577,-734,-279,-324,-304,752,-424,640,-259,402,29.600000,47.099998,979.830017
16/06/2023,19:05:35.586,-813,-263,-375,-664,747,-451,639,-271,421,29.600000,47.099998,979.830017
16/06/2023,19:05:35.595,-894,-290,-396,-933,792,-362,639,-271,421,29.600000,47.099998,979.830017
16/06/2023,19:05:35.605,-1006,-336,-399,-791,928,-120,624,-265,412,29.600000,47.099998,979.830017
16/06/2023,19:05:35.614,-1178,-418,-330,-271,1101,180,636,-264,399,29.600000,47.099998,979.830017
16/06/2023,19:05:35.661,-1017,-282,27,1023,458,510,615,-270,478,29.600000,47.099998,979.830017
16/06/2023,19:05:35.671,-987,-260,60,702,428,439,627,-276,481,29.600000,47.099998,979.830017
16/06/2023,19:05:35.680,-928,-243,65,340,394,350,612,-304,487,29.600000,47.099998,979.830017
16/06/2023,19:05:35.689,-852,-196,10,93,408,287,612,-291,487,29.600000,47.099998,979.830017
16/06/2023,19:05:35.698,-801,-142,-43,-21,500,254,612,-291,487,29.600000,47.099998,979.830017
16/06/2023,19:05:35.708,-814,-67,-81,-69,563,233,604,-309,492,29.600000,47.099998,979.830017
16/06/2023,19:05:35.718,-851,11,-121,-56,585,202,613,-295,504,29.600000,47.099998,979.830017
16/06/2023,19:05:35.727,-874,70,-151,14,601,162,598,-313,501,29.600000,47.099998,979.830017
16/06/2023,19:05:35.736,-908,118,-162,106,589,102,604,-303,490,29.600000,47.099998,979.830017
16/06/2023,19:05:35.746,-930,140,-157,216,543,37,601,-301,496,29.600000,47.099998,979.830017
16/06/2023,19:05:35.755,-929,140,-129,285,490,-8,615,-306,498,29.600000,47.099998,979.830017
16/06/2023,19:05:35.764,-930,119,-94,285,490,-8,585,-300,523,29.600000,47.099998,979.830017
16/06/2023,19:05:35.774,-952,72,-71,260,451,-40,583,-318,517,29.600000,47.099998,979.830017
16/06/2023,19:05:35.783,-979,-18,-56,155,440,-90,583,-318,517,29.600000,47.099998,979.830017
16/06/2023,19:05:35.792,-982,-125,-36,13,430,-126,577,-322,532,29.600000,47.099998,979.830017
16/06/2023,19:05:35.802,-986,-215,-4,-96,437,-136,595,-316,528,29.600000,47.099998,979.830017
16/06/2023,19:05:35.811,-1008,-277,32,-143,446,-122,583,-306,519,29.600000,47.099998,979.830017
16/06/2023,19:05:35.821,-1027,-316,58,-110,415,-88,576,-306,541,29.600000,47.099998,979.830017
16/06/2023,19:05:35.830,-1035,-335,63,-18,344,-51,588,-319,540,29.600000,47.099998,979.830017
16/06/2023,19:05:35.839,-1033,-335,46,75,269,-16,594,-319,546,29.600000,47.099998,979.830017
16/06/2023,19:05:35.849,-1027,-322,10,116,198,16,591,-328,555,29.600000,47.099998,979.830017
16/06/2023,19:05:35.858,-1027,-322,10,98,160,32,585,-330,540,29.600000,47.099998,979.830017
16/06/2023,19:05:35.867,-1017,-309,-30,50,95,35,588,-327,541,29.600000,47.099998,979.830017
16/06/2023,19:05:35.876,-987,-299,-85,12,90,8,588,-327,541,29.600000,47.099998,979.830017
16/06/2023,19:05:35.886,-970,-298,-117,10,117,0,577,-352,544,29.600000,47.099998,979.830017
16/06/2023,19:05:35.896,-1003,-300,-112,59,132,-15,574,-336,541,29.600000,47.099998,979.830017
16/06/2023,19:05:35.905,-1041,-307,-93,115,139,-10,573,-351,570,29.600000,47.099998,979.830017
16/06/2023,19:05:35.917,-1078,-321,-55,151,166,-23,582,-352,537,29.600000,47.099998,979.830017
16/06/2023,19:05:35.924,-1122,-336,8,168,186,-47,564,-361,552,29.600000,47.099998,979.830017
16/06/2023,19:05:35.933,-1143,-346,92,114,155,-60,570,-336,534,29.600000,47.099998,979.830017
16/06/2023,19:05:35.942,-1147,-341,176,-74,137,-92,576,-366,549,29.600000,47.099998,979.830017
16/06/2023,19:05:35.952,-1140,-315,262,-317,28,-125,580,-370,553,29.600000,47.099998,979.830017
16/06/2023,19:05:35.961,-1170,-310,337,-490,-133,-143,561,-366,531,29.600000,47.099998,979.830017
16/06/2023,19:05:35.970,-1263,-332,383,-571,-357,-114,561,-366,531,29.600000,47.099998,979.830017
16/06/2023,19:05:35.979,-1372,-350,371,-588,-639,-114,558,-358,553,29.600000,47.099998,979.830017
16/06/2023,19:05:35.989,-1436,-366,332,-620,-766,-135,577,-369,522,29.600000,47.099998,979.830017
16/06/2023,19:05:35.999,-1399,-366,309,-701,-895,-144,592,-376,505,29.600000,47.099998,979.830017
16/06/2023,19:05:36.008,-1297,-368,290,-795,-1069,-117,586,-373,508,29.600000,47.099998,979.830017
16/06/2023,19:05:36.017,-1172,-384,256,-910,-1239,-100,586,-382,469,29.600000,47.099998,979.830017
16/06/2023,19:05:36.027,-1086,-385,169,-1050,-1428,-73,576,-384,435,29.600000,47.099998,979.830017
16/06/2023,19:05:36.036,-1046,-394,0,-1166,-1571,-41,597,-379,417,29.600000,47.099998,979.830017
16/06/2023,19:05:36.045,-990,-449,-233,-1370,-1515,-50,592,-388,393,29.600000,47.099998,979.830017
16/06/2023,19:05:36.055,-945,-461,-430,-1741,-1286,-66,586,-396,379,29.600000,47.099998,979.830017
16/06/2023,19:05:36.064,-1002,-338,-580,-2018,-1095,-102,586,-396,379,29.600000,47.099998,979.830017
16/06/2023,19:05:36.073,-1085,-245,-675,-2052,-987,-245,591,-417,343,29.600000,47.099998,979.830017
16/06/2023,19:05:36.083,-1088,-260,-739,-1907,-970,-336,603,-397,327,29.600000,47.099998,979.830017
16/06/2023,19:05:36.092,-1102,-290,-765,-1454,-903,-348,604,-388,307,29.600000,47.099998,979.830017
16/06/2023,19:05:36.102,-1127,-382,-691,-724,-749,-260,589,-376,289,29.600000,47.099998,979.830017
16/06/2023,19:05:36.111,-1098,-530,-447,-127,-571,-13,582,-369,262,29.600000,47.099998,979.830017
16/06/2023,19:05:36.120,-1151,-625,-21,-61,-580,405,591,-373,265,29.600000,47.099998,979.830017
16/06/2023,19:05:36.130,-1279,-502,289,-61,-580,405,574,-355,259,29.600000,47.099998,979.830017
16/06/2023,19:05:36.139,-1308,-294,346,-629,-798,519,555,-357,265,29.600000,47.099998,979.830017
16/06/2023,19:05:36.149,-1166,-249,205,-1348,-964,152,565,-340,246,29.600000,47.099998,979.830017
16/06/2023,19:05:36.157,-978,-223,-97,-1802,-988,-89,565,-340,246,29.600000,47.099998,979.830017
16/06/2023,19:05:36.167,-901,-161,-294,-1983,-966,80,556,-342,241,29.600000,47.099998,979.830017
16/06/2023,19:05:36.177,-886,-114,-267,-1896,-854,302,558,-328,211,29.600000,47.099998,979.830017
16/06/2023,19:05:36.186,-863,-80,-165,-1767,-780,413,562,-318,175,29.600000,47.099998,979.830017
16/06/2023,19:05:36.195,-836,-82,-126,-1745,-694,412,531,-309,187,29.600000,47.099998,979.830017
16/06/2023,19:05:36.205,-836,-82,-126,-1790,-660,373,546,-280,183,29.600000,47.099998,979.830017
16/06/2023,19:05:36.214,-827,-101,-120,-1809,-585,362,522,-262,154,29.600000,47.099998,979.830017
16/06/2023,19:05:36.223,-831,-108,-111,-1793,-485,363,538,-256,139,29.600000,47.099998,979.830017
16/06/2023,19:05:36.233,-849,-108,-138,-1712,-400,396,529,-249,142,29.600000,47.099998,979.830017
16/06/2023,19:05:36.242,-846,-107,-128,-1596,-331,421,517,-247,118,29.600000,47.099998,979.830017
16/06/2023,19:05:36.251,-810,-78,-87,-1491,-262,448,517,-247,118,29.600000,47.099998,979.830017
16/06/2023,19:05:36.270,-732,-34,-54,-1266,-143,532,511,-240,153,29.600000,47.099998,979.830017
16/06/2023,19:05:36.280,-724,8,-38,-1177,-100,535,514,-244,96,29.600000,47.099998,979.830017
16/06/2023,19:05:36.289,-700,75,-6,-1090,-65,496,501,-231,123,29.600000,47.099998,979.830017
16/06/2023,19:05:36.298,-733,46,-8,-979,5,475,502,-222,112,29.600000,47.099998,979.830017
16/06/2023,19:05:36.308,-827,-5,-14,-884,68,467,495,-216,100,29.600000,47.099998,979.830017
16/06/2023,19:05:36.317,-864,14,16,-826,92,451,496,-237,127,29.600000,47.099998,979.830017
16/06/2023,19:05:36.327,-857,23,59,-793,132,416,498,-219,124,29.600000,47.099998,979.830017
16/06/2023,19:05:36.336,-842,32,77,-775,153,368,492,-205,121,29.600000,47.099998,979.830017
16/06/2023,19:05:36.345,-819,35,89,-752,173,332,492,-205,121,29.600000,47.099998,979.830017
16/06/2023,19:05:36.354,-798,34,121,-711,193,301,498,-220,139,29.600000,47.099998,979.830017
16/06/2023,19:05:36.363,-781,20,147,-648,220,287,498,-216,123,29.600000,47.099998,979.830017
16/06/2023,19:05:36.373,-777,-10,176,-599,259,257,487,-198,147,29.600000,47.099998,979.830017
16/06/2023,19:05:36.383,-801,-26,209,-573,300,222,507,-199,130,29.600000,47.099998,979.830017
16/06/2023,19:05:36.392,-846,-52,244,-588,350,198,511,-181,124,29.600000,47.099998,979.830017
16/06/2023,19:05:36.401,-897,-93,297,-637,381,179,505,-187,133,29.600000,47.099998,979.830017
16/06/2023,19:05:36.411,-957,-128,346,-710,406,159,522,-189,136,29.600000,47.099998,979.830017
16/06/2023,19:05:36.420,-1035,-165,396,-772,417,132,504,-183,142,29.600000,47.099998,979.830017
16/06/2023,19:05:36.429,-1114,-217,463,-811,391,118,504,-183,142,29.600000,47.099998,979.830017
16/06/2023,19:05:36.438,-1167,-295,541,-839,330,122,505,-198,142,29.600000,47.099998,979.830017
16/06/2023,19:05:36.448,-1196,-342,602,-875,228,166,507,-169,133,29.600000,47.099998,979.830017
16/06/2023,19:05:36.458,-1154,-361,584,-889,82,243,516,-196,132,29.600000,47.099998,979.830017
16/06/2023,19:05:36.467,-1049,-366,481,-843,21,340,507,-177,141,29.600000,47.099998,979.830017
16/06/2023,19:05:36.476,-944,-344,354,-843,21,340,519,-160,136,29.600000,47.099998,979.830017
16/06/2023,19:05:36.486,-851,-318,240,-721,46,423,496,-172,145,29.600000,47.099998,979.830017
16/06/2023,19:05:36.495,-778,-275,137,-444,199,466,496,-172,145,29.600000,46.900002,979.830017
16/06/2023,19:05:36.505,-827,-162,47,-444,199,466,514,-187,147,29.600000,46.900002,979.789978
16/06/2023,19:05:36.514,-1005,-19,-82,-202,327,443,499,-165,141,29.600000,46.900002,979.789978
16/06/2023,19:05:36.523,-1005,-19,-82,104,520,236,499,-165,141,29.600000,46.900002,979.789978
16/06/2023,19:05:36.532,-1171,92,-233,342,664,-33,499,-175,169,29.600000,46.900002,979.789978
16/06/2023,19:05:36.542,-1292,280,-450,505,660,-264,505,-190,151,29.600000,46.900002,979.789978
16/06/2023,19:05:36.551,-1352,280,-450,499,739,-459,504,-192,162,29.600000,46.900002,979.789978
16/06/2023,19:05:36.561,-1296,290,-343,420,842,-708,513,-186,184,29.600000,46.900002,979.789978
16/06/2023,19:05:36.570,-1142,265,-133,326,779,-775,517,-181,195,29.600000,46.900002,979.789978
16/06/2023,19:05:36.579,-1006,264,0,316,608,-628,526,-174,186,29.600000,46.900002,979.789978
16/06/2023,19:05:36.589,-937,262,115,349,480,-354,528,-180,189,29.600000,46.900002,979.789978
16/06/2023,19:05:36.598,-916,242,234,339,441,-206,538,-157,198,29.600000,46.900002,979.789978
16/06/2023,19:05:36.608,-827,201,231,183,429,-232,531,-181,214,29.600000,46.900002,979.789978
16/06/2023,19:05:36.619,-680,189,67,-74,386,-311,531,-181,214,29.600000,46.900002,979.789978
16/06/2023,19:05:36.626,-625,189,-154,-260,419,-382,541,-180,205,29.600000,46.900002,979.789978
16/06/2023,19:05:36.636,-642,125,-292,-310,466,-443,540,-175,222,29.600000,46.900002,979.789978
16/06/2023,19:05:36.645,-711,19,-339,-418,555,-459,529,-171,223,29.600000,46.900002,979.789978
16/06/2023,19:05:36.654,-841,-77,-350,-601,656,-392,535,-174,229,29.600000,46.900002,979.789978
16/06/2023,19:05:36.664,-1038,-160,-335,-875,671,-223,547,-162,229,29.600000,46.900002,979.789978
16/06/2023,19:05:36.673,-1233,-248,-326,-1142,657,-11,546,-154,243,29.600000,46.900002,979.789978
16/06/2023,19:05:36.683,-1322,-315,-313,-1291,678,184,543,-162,238,29.600000,46.900002,979.789978
16/06/2023,19:05:36.692,-1287,-358,-269,-1182,709,250,543,-163,235,29.600000,46.900002,979.789978
16/06/2023,19:05:36.701,-1156,-421,-209,-762,800,265,543,-163,235,29.600000,46.900002,979.789978
16/06/2023,19:05:36.710,-1042,-526,-95,-72,685,390,538,-148,234,29.600000,46.900002,979.789978
16/06/2023,19:05:36.720,-1011,-585,-7,491,432,539,535,-156,256,29.600000,46.900002,979.789978
16/06/2023,19:05:36.729,-991,-570,19,686,392,527,553,-175,244,29.600000,46.900002,979.789978
16/06/2023,19:05:36.739,-919,-523,50,565,507,421,535,-166,241,29.600000,46.900002,979.789978
16/06/2023,19:05:36.748,-838,-457,61,363,598,383,534,-177,246,29.600000,46.900002,979.789978
16/06/2023,19:05:36.757,-791,-373,62,199,576,395,528,-190,253,29.600000,46.900002,979.789978
16/06/2023,19:05:36.767,-763,-286,46,77,591,376,534,-199,268,29.600000,46.900002,979.789978
16/06/2023,19:05:36.776,-781,-193,3,-32,630,359,531,-195,276,29.600000,46.900002,979.789978
16/06/2023,19:05:36.785,-851,-75,-58,-80,632,305,531,-195,276,29.600000,46.900002,979.789978
16/06/2023,19:05:36.794,-915,6,-114,-77,669,246,531,-178,268,29.600000,46.900002,979.789978
16/06/2023,19:05:36.804,-960,49,-122,-29,592,206,552,-192,262,29.600000,46.900002,979.789978
16/06/2023,19:05:36.814,-976,82,-111,-29,592,206,547,-186,256,29.600000,46.900002,979.789978
16/06/2023,19:05:36.823,-979,92,-75,72,524,163,547,-198,265,29.600000,46.900002,979.789978
16/06/2023,19:05:36.832,-991,83,-1,132,537,128,553,-198,267,29.600000,46.900002,979.789978
16/06/2023,19:05:36.842,-998,64,50,64,543,103,540,-202,286,29.600000,46.900002,979.789978
16/06/2023,19:05:36.851,-995,15,52,-74,489,63,540,-193,292,29.600000,46.900002,979.789978
16/06/2023,19:05:36.861,-988,-91,25,-182,400,13,540,-201,285,29.600000,46.900002,979.789978
16/06/2023,19:05:36.879,-978,-204,-2,-230,328,-37,553,-199,307,29.600000,46.900002,979.789978
16/06/2023,19:05:36.888,-974,-261,-57,-311,233,-31,535,-195,291,29.600000,46.900002,979.789978
16/06/2023,19:05:36.898,-967,-272,-127,-238,221,-12,537,-180,288,29.600000,46.900002,979.789978
16/06/2023,19:05:36.907,-955,-271,-163,-80,204,17,553,-198,292,29.600000,46.900002,979.789978
16/06/2023,19:05:36.917,-959,-269,-177,108,199,37,534,-199,288,29.600000,46.900002,979.789978
16/06/2023,19:05:36.926,-960,-271,-159,250,189,68,546,-210,310,29.600000,46.900002,979.789978
16/06/2023,19:05:36.936,-954,-274,-136,336,175,85,541,-196,310,29.600000,46.900002,979.789978
16/06/2023,19:05:36.945,-952,-278,-129,377,177,73,540,-204,283,29.600000,46.900002,979.789978
16/06/2023,19:05:36.954,-963,-267,-128,388,198,75,556,-210,295,29.600000,46.900002,979.789978
16/06/2023,19:05:36.964,-988,-245,-121,353,244,62,540,-204,295,29.600000,46.900002,979.789978
16/06/2023,19:05:36.972,-1022,-245,-94,274,272,36,540,-204,295,29.600000,46.900002,979.789978
16/06/2023,19:05:36.982,-1062,-256,-77,139,276,6,558,-211,307,29.600000,46.900002,979.789978
16/06/2023,19:05:36.992,-1109,-270,-67,-38,296,-34,555,-208,291,29.600000,46.900002,979.789978
16/06/2023,19:05:37.001,-1155,-301,-31,-237,400,-64,550,-213,304,29.600000,46.900002,979.789978
16/06/2023,19:05:37.010,-1183,-356,63,-438,485,-85,549,-205,285,29.600000,46.900002,979.789978
16/06/2023,19:05:37.020,-1212,-410,224,-571,469,-108,553,-211,300,29.600000,46.900002,979.789978
16/06/2023,19:05:37.032,-1241,-475,384,-629,230,-132,561,-216,306,29.600000,46.900002,979.789978
16/06/2023,19:05:37.039,-1256,-562,443,-690,-146,-108,561,-201,318,29.600000,46.900002,979.789978
16/06/2023,19:05:37.048,-1294,-615,368,-803,-378,-27,546,-193,300,29.600000,46.900002,979.789978
16/06/2023,19:05:37.057,-1380,-621,235,-880,-509,11,546,-193,300,29.600000,46.900002,979.789978
16/06/2023,19:05:37.066,-1363,-591,101,-940,-592,-19,562,-207,297,29.600000,46.900002,979.789978
16/06/2023,19:05:37.076,-1225,-519,22,-971,-676,-14,576,-199,276,29.600000,46.900002,979.789978
16/06/2023,19:05:37.085,-1125,-383,70,-1069,-749,2,555,-184,274,29.600000,46.900002,979.789978
16/06/2023,19:05:37.095,-1098,-247,212,-1149,-857,-7,568,-178,268,29.600000,46.900002,979.789978
16/06/2023,19:05:37.104,-1114,-179,306,-1201,-990,-24,571,-193,247,29.600000,46.900002,979.789978
16/06/2023,19:05:37.114,-1141,-135,203,-1249,-1211,-4,568,-195,246,29.600000,46.900002,979.789978
16/06/2023,19:05:37.123,-1118,-110,-26,-1190,-1273,-38,565,-187,222,29.600000,46.900002,979.789978
16/06/2023,19:05:37.132,-1038,-113,-216,-1075,-1244,-136,543,-168,226,29.600000,46.900002,979.789978
16/06/2023,19:05:37.142,-996,-131,-348,-1114,-1135,-197,556,-169,214,29.600000,46.900002,979.789978
16/06/2023,19:05:37.150,-1023,-137,-514,-1277,-1038,-314,556,-169,214,29.600000,46.900002,979.789978
16/06/2023,19:05:37.160,-1078,-110,-685,-1544,-884,-413,565,-172,186,29.600000,46.900002,979.789978
16/06/2023,19:05:37.170,-1113,-60,-733,-1544,-884,-413,561,-156,187,29.600000,46.900002,979.789978
16/06/2023,19:05:37.179,-1136,-26,-696,-1542,-907,-625,561,-162,171,29.600000,46.900002,979.789978
16/06/2023,19:05:37.188,-1109,-99,-524,-1211,-1095,-824,552,-145,166,29.600000,46.900002,979.789978
16/06/2023,19:05:37.198,-1125,-252,-199,-640,-1134,-817,553,-118,162,29.600000,46.900002,979.789978
16/06/2023,19:05:37.207,-1335,-325,138,-170,-973,-435,567,-138,154,29.600000,46.900002,979.789978
16/06/2023,19:05:37.217,-1573,-385,355,-144,-829,8,571,-124,145,29.600000,46.900002,979.789978
16/06/2023,19:05:37.226,-1562,-456,373,-623,-1004,205,561,-120,145,29.600000,46.900002,979.789978
16/06/2023,19:05:37.235,-1562,-456,373,-1356,-1367,293,558,-109,123,29.600000,46.900002,979.789978
16/06/2023,19:05:37.244,-1337,-260,116,-1842,-1550,208,558,-109,123,29.600000,46.900002,979.789978
16/06/2023,19:05:37.253,-1072,-39,-149,-1678,-1435,-37,556,-90,141,29.600000,46.900002,979.789978
16/06/2023,19:05:37.263,-837,-39,-276,-1310,-1188,68,534,-81,106,29.600000,46.900002,979.789978
16/06/2023,19:05:37.273,-731,-23,-276,-876,-1000,271,538,-84,106,29.600000,46.900002,979.789978
16/06/2023,19:05:37.282,-708,24,-148,-705,-911,297,546,-85,97,29.600000,46.900002,979.789978
16/06/2023,19:05:37.292,-677,79,-107,-695,-792,288,537,-87,81,29.600000,46.900002,979.789978
16/06/2023,19:05:37.301,-627,93,-106,-673,-664,272,531,-75,78,29.600000,46.900002,979.789978
16/06/2023,19:05:37.310,-585,80,-111,-645,-566,293,525,-70,79,29.600000,46.900002,979.789978
16/06/2023,19:05:37.320,-577,92,-133,-597,-483,301,522,-57,57,29.600000,46.900002,979.789978
16/06/2023,19:05:37.329,-593,94,-114,-518,-393,300,534,-52,87,29.600000,46.900002,979.789978
16/06/2023,19:05:37.338,-597,84,-80,-449,-316,280,534,-52,87,29.600000,46.900002,979.789978
16/06/2023,19:05:37.347,-589,62,-74,-363,-249,293,531,-75,72,29.600000,46.900002,979.789978
16/06/2023,19:05:37.357,-580,61,-72,-275,-174,302,513,-61,75,29.600000,46.900002,979.789978
16/06/2023,19:05:37.366,-571,90,-61,-186,-110,288,538,-51,84,29.600000,46.900002,979.789978
16/06/2023,19:05:37.376,-573,142,-6,-95,-35,257,538,-49,76,29.600000,46.900002,979.789978
16/06/2023,19:05:37.385,-562,194,74,-35,25,171,534,-60,82,29.600000,46.900002,979.789978
16/06/2023,19:05:37.395,-578,193,122,-32,144,145,519,-61,93,29.600000,46.900002,979.789978
16/06/2023,19:05:37.404,-643,149,173,-26,221,99,499,-61,61,29.600000,46.900002,979.789978
16/06/2023,19:05:37.413,-724,101,262,-34,269,40,531,-45,73,29.600000,46.900002,979.789978
16/06/2023,19:05:37.423,-793,40,336,-69,302,-25,525,-45,75,29.600000,46.900002,979.789978
16/06/2023,19:05:37.431,-828,-6,338,-54,352,-75,525,-45,75,29.600000,46.900002,979.789978
16/06/2023,19:05:37.441,-886,-73,321,122,404,-118,513,-48,93,29.600000,46.900002,979.789978
16/06/2023,19:05:37.451,-1012,-158,383,199,501,-167,528,-39,72,29.600000,46.900002,979.789978
16/06/2023,19:05:37.460,-1173,-254,488,112,520,-190,543,-49,97,29.600000,46.900002,979.789978
16/06/2023,19:05:37.470,-1316,-317,584,-104,413,-152,549,-30,102,29.600000,46.900002,979.789978
16/06/2023,19:05:37.488,-1366,-385,783,-546,-10,39,550,-37,90,29.600000,46.900002,979.789978
16/06/2023,19:05:37.498,-1259,-447,781,-680,-241,214,552,-51,106,29.600000,46.900002,979.789978
16/06/2023,19:05:37.507,-1132,-412,625,-680,-241,214,546,-34,108,29.600000,46.900002,979.789978
16/06/2023,19:05:37.516,-995,-301,428,-676,-321,326,550,-37,112,29.600000,46.900002,979.789978
16/06/2023,19:05:37.525,-859,-186,325,-491,-245,379,550,-37,112,29.600000,46.900002,979.789978
16/06/2023,19:05:37.535,-775,-105,293,-212,-139,428,550,-33,91,29.600000,46.900002,979.789978
16/06/2023,19:05:37.544,-781,15,252,41,-21,422,541,-28,112,29.600000,46.900002,979.830017
16/06/2023,19:05:37.554,-1004,107,122,284,160,343,541,-28,112,29.600000,46.900002,979.830017
16/06/2023,19:05:37.563,-1354,87,15,620,571,121,541,-36,96,29.600000,46.900002,979.830017
16/06/2023,19:05:37.573,-1567,96,-51,877,946,-229,544,-51,103,29.600000,46.900002,979.830017
16/06/2023,19:05:37.582,-1567,96,-51,1140,964,-513,540,-52,115,29.600000,46.900002,979.830017
16/06/2023,19:05:37.591,-1567,181,-180,1225,713,-646,561,-52,138,29.600000,46.900002,979.830017
16/06/2023,19:05:37.601,-1453,219,-241,1005,602,-608,565,-37,151,29.600000,46.900002,979.830017
16/06/2023,19:05:37.609,-1277,178,-196,653,577,-485,565,-37,151,29.600000,46.900002,979.830017
16/06/2023,19:05:37.619,-1054,140,-96,374,353,-211,577,-31,148,29.600000,46.900002,979.830017
16/06/2023,19:05:37.629,-810,127,-25,233,60,-117,567,-45,156,29.600000,46.900002,979.830017
16/06/2023,19:05:37.642,-564,111,-27,140,-88,-114,571,-36,156,29.600000,46.900002,979.830017
16/06/2023,19:05:37.648,-406,109,-57,80,-11,-120,591,-43,142,29.600000,46.900002,979.830017
16/06/2023,19:05:37.657,-342,116,-84,88,271,-149,576,-46,133,29.600000,46.900002,979.830017
16/06/2023,19:05:37.666,-376,96,-137,164,481,-255,583,-33,147,29.600000,46.900002,979.830017
16/06/2023,19:05:37.676,-482,66,-203,123,607,-370,571,-51,148,29.600000,46.900002,979.830017
16/06/2023,19:05:37.685,-565,59,-249,104,633,-443,592,-33,157,29.600000,46.900002,979.830017
16/06/2023,19:05:37.694,-623,26,-297,91,692,-484,585,-24,171,29.600000,46.900002,979.830017
16/06/2023,19:05:37.703,-709,-16,-344,16,883,-506,585,-24,171,29.600000,46.900002,979.830017
16/06/2023,19:05:37.713,-829,-38,-363,113,1058,-559,588,-27,168,29.600000,46.900002,979.830017
16/06/2023,19:05:37.722,-986,-68,-366,441,1212,-595,595,-31,172,29.600000,46.900002,979.830017
16/06/2023,19:05:37.732,-1174,-132,-366,921,1307,-496,586,-22,174,29.600000,46.900002,979.830017
16/06/2023,19:05:37.741,-1373,-383,-290,1270,1361,-53,622,-27,186,29.600000,46.900002,979.830017
16/06/2023,19:05:37.751,-1624,-639,-167,1413,1238,736,598,-10,190,29.600000,46.900002,979.830017
16/06/2023,19:05:37.760,-1716,-664,-30,1533,794,1129,627,-21,216,29.600000,46.900002,979.830017
16/06/2023,19:05:37.769,-1447,-650,84,1352,417,911,618,-48,207,29.600000,46.900002,979.830017
16/06/2023,19:05:37.779,-1059,-640,75,1013,344,604,607,-45,217,29.600000,46.900002,979.830017
16/06/2023,19:05:37.788,-819,-577,25,769,430,419,622,-61,223,29.600000,46.900002,979.830017
16/06/2023,19:05:37.797,-743,-505,11,572,539,338,622,-61,223,29.600000,46.900002,979.830017
16/06/2023,19:05:37.806,-734,-450,33,348,546,327,597,-72,232,29.600000,46.900002,979.830017
16/06/2023,19:05:37.816,-754,-385,26,99,527,309,622,-67,232,29.600000,46.900002,979.830017
16/06/2023,19:05:37.826,-759,-304,-20,-100,586,247,618,-78,232,29.600000,46.900002,979.830017
16/06/2023,19:05:37.835,-759,-210,-70,-219,652,214,627,-78,237,29.600000,46.900002,979.830017
16/06/2023,19:05:37.844,-806,-130,-109,-230,666,160,630,-73,240,29.600000,46.900002,979.830017
16/06/2023,19:05:37.854,-870,-68,-139,-230,666,160,627,-72,226,29.600000,46.900002,979.830017
16/06/2023,19:05:37.863,-910,-6,-164,-179,636,130,622,-70,246,29.600000,46.900002,979.830017
16/06/2023,19:05:37.872,-925,21,-169,-63,607,77,630,-70,262,29.600000,46.900002,979.830017
16/06/2023,19:05:37.882,-942,43,-167,91,581,35,627,-81,252,29.600000,46.900002,979.830017
16/06/2023,19:05:37.891,-959,49,-139,244,580,22,627,-81,252,29.600000,46.900002,979.830017
16/06/2023,19:05:37.900,-959,49,-139,356,596,43,637,-82,243,29.600000,46.900002,979.830017
16/06/2023,19:05:37.910,-1073,9,-36,403,589,57,621,-58,259,29.600000,46.900002,979.830017
16/06/2023,19:05:37.919,-1104,-44,0,403,525,28,625,-64,274,29.600000,46.900002,979.830017
16/06/2023,19:05:37.929,-1104,-44,0,352,428,3,630,-69,273,29.600000,46.900002,979.830017
16/06/2023,19:05:37.938,-1116,-96,6,293,337,-17,624,-58,271,29.600000,46.900002,979.830017
16/06/2023,19:05:37.947,-1099,-158,0,259,253,-14,631,-82,283,29.600000,46.900002,979.830017
16/06/2023,19:05:37.957,-1069,-220,-25,250,182,4,616,-60,270,29.600000,46.900002,979.830017
16/06/2023,19:05:37.966,-1026,-256,-71,295,135,30,634,-85,282,29.600000,46.900002,979.830017
16/06/2023,19:05:37.975,-980,-268,-101,391,134,40,636,-51,277,29.600000,46.900002,979.830017
16/06/2023,19:05:37.984,-946,-274,-95,462,156,37,636,-51,277,29.600000,46.900002,979.830017
16/06/2023,19:05:37.994,-928,-293,-71,480,154,24,643,-73,280,29.600000,46.900002,979.830017
16/06/2023,19:05:38.004,-945,-318,-51,459,114,14,633,-63,280,29.600000,46.900002,979.830017
16/06/2023,19:05:38.013,-977,-350,-42,389,60,17,627,-85,297,29.600000,46.900002,979.830017
16/06/2023,19:05:38.022,-1012,-393,-41,278,94,10,646,-69,289,29.600000,46.900002,979.830017
16/06/2023,19:05:38.032,-1064,-431,-16,174,191,-24,640,-67,291,29.600000,46.900002,979.830017
16/06/2023,19:05:38.041,-1103,-479,52,88,266,-59,631,-60,279,29.600000,46.900002,979.830017
16/06/2023,19:05:38.050,-1131,-531,166,13,233,-68,634,-64,304,29.600000,46.900002,979.830017
16/06/2023,19:05:38.060,-1201,-598,324,-69,57,-32,637,-69,286,29.600000,46.900002,979.830017
16/06/2023,19:05:38.069,-1309,-673,448,-229,-251,53,640,-66,312,29.600000,46.900002,979.830017
16/06/2023,19:05:38.078,-1398,-721,450,-476,-541,101,640,-66,312,29.600000,46.900002,979.830017
16/06/2023,19:05:38.087,-1374,-708,354,-722,-687,76,634,-73,298,29.600000,46.900002,979.830017
16/06/2023,19:05:38.097,-1235,-611,286,-869,-795,95,634,-48,291,29.600000,46.900002,979.830017
16/06/2023,19:05:38.116,-1056,-309,322,-1110,-1086,186,627,-76,285,29.600000,46.900002,979.830017
16/06/2023,19:05:38.125,-1055,-241,216,-1175,-1268,272,633,-63,265,29.600000,46.900002,979.830017
16/06/2023,19:05:38.135,-1084,-218,0,-1097,-1416,313,631,-52,258,29.600000,46.900002,979.830017
16/06/2023,19:05:38.144,-1066,-176,-212,-950,-1417,315,624,-67,265,29.600000,46.900002,979.830017
16/06/2023,19:05:38.153,-1041,-150,-374,-887,-1345,287,636,-49,232,29.600000,46.900002,979.830017
16/06/2023,19:05:38.163,-1117,-95,-534,-873,-1171,166,634,-54,228,29.600000,46.900002,979.830017
16/06/2023,19:05:38.172,-1261,14,-678,-839,-1048,-44,634,-54,228,29.600000,46.900002,979.830017
16/06/2023,19:05:38.181,-1378,106,-798,-581,-947,-451,627,-48,210,29.600000,46.900002,979.830017
16/06/2023,19:05:38.191,-1426,153,-876,-215,-804,-800,598,-28,217,29.600000,46.900002,979.830017
16/06/2023,19:05:38.200,-1396,176,-796,-215,-804,-800,631,-36,207,29.600000,46.900002,979.830017
16/06/2023,19:05:38.210,-1262,94,-402,352,-871,-1020,612,-37,205,29.600000,46.900002,979.830017
16/06/2023,19:05:38.219,-1270,69,153,571,-898,-808,618,-22,198,29.600000,46.900002,979.830017
16/06/2023,19:05:38.228,-1473,109,475,202,-777,-308,619,-34,180,29.600000,46.900002,979.830017
16/06/2023,19:05:38.238,-1546,-1,486,-554,-933,-50,619,-18,187,29.600000,46.900002,979.830017
16/06/2023,19:05:38.247,-1382,-190,290,-1382,-1424,-79,598,-24,169,29.600000,46.900002,979.830017
16/06/2023,19:05:38.257,-1106,-334,5,-1926,-1678,-198,573,-12,175,29.600000,46.900002,979.830017
16/06/2023,19:05:38.265,-1106,-334,5,-1919,-1591,-102,573,-12,175,29.600000,46.900002,979.830017
16/06/2023,19:05:38.275,-905,-288,-179,-1652,-1383,26,595,1,133,29.600000,46.900002,979.830017
16/06/2023,19:05:38.285,-823,-91,-214,-1236,-1153,39,600,4,130,29.600000,46.900002,979.830017
16/06/2023,19:05:38.294,-727,-1,-221,-886,-916,170,592,13,138,29.600000,46.900002,979.830017
16/06/2023,19:05:38.303,-635,22,-172,-605,-750,339,597,18,135,29.600000,46.900002,979.830017
16/06/2023,19:05:38.313,-602,80,-86,-458,-656,436,568,19,115,29.600000,46.900002,979.830017
16/06/2023,19:05:38.322,-575,113,-49,-444,-577,431,565,30,126,29.600000,46.900002,979.830017
16/06/2023,19:05:38.331,-560,108,-34,-491,-490,403,570,21,118,29.600000,46.900002,979.830017
16/06/2023,19:05:38.341,-559,87,-51,-512,-443,366,553,16,120,29.600000,46.900002,979.830017
16/06/2023,19:05:38.350,-564,71,-58,-489,-421,346,561,25,109,29.600000,46.900002,979.830017
16/06/2023,19:05:38.359,-596,70,-72,-448,-397,310,561,25,109,29.600000,46.900002,979.830017
16/06/2023,19:05:38.368,-587,44,-96,-393,-315,303,559,22,112,29.600000,46.900002,979.830017
16/06/2023,19:05:38.378,-567,50,-73,-327,-235,322,564,25,127,29.600000,46.900002,979.830017
16/06/2023,19:05:38.388,-573,97,-49,-296,-163,270,565,19,96,29.600000,46.900002,979.830017
16/06/2023,19:05:38.397,-562,112,-38,-256,-96,220,570,30,123,29.600000,46.900002,979.830017
16/06/2023,19:05:38.406,-551,122,-2,-204,-15,186,574,21,93,29.600000,46.900002,979.830017
16/06/2023,19:05:38.416,-544,111,63,-150,78,144,546,30,114,29.600000,46.900002,979.830017
16/06/2023,19:05:38.425,-567,125,148,-145,138,68,565,34,99,29.600000,46.900002,979.830017
16/06/2023,19:05:38.435,-622,80,202,-127,213,0,562,19,91,29.600000,46.900002,979.830017
16/06/2023,19:05:38.444,-705,20,229,-52,306,-33,571,12,100,29.600000,46.900002,979.830017
16/06/2023,19:05:38.453,-778,-31,279,61,406,-47,571,12,100,29.600000,46.900002,979.830017
16/06/2023,19:05:38.463,-861,-71,327,246,546,-72,558,22,111,29.600000,46.900002,979.830017
16/06/2023,19:05:38.472,-1014,-130,436,311,667,-79,564,21,126,29.600000,46.900002,979.830017
16/06/2023,19:05:38.481,-1166,-249,580,175,691,-78,571,33,121,29.600000,46.900002,979.830017
16/06/2023,19:05:38.491,-1296,-269,619,-59,632,-42,565,13,115,29.600000,46.900002,979.830017
16/06/2023,19:05:38.500,-1434,-269,618,-277,465,36,565,10,115,29.600000,46.900002,979.830017
16/06/2023,19:05:38.509,-1445,-396,675,-386,275,129,580,25,117,29.600000,46.900002,979.830017
16/06/2023,19:05:38.519,-1337,-443,644,-386,275,129,574,9,117,29.600000,46.900002,979.830017
16/06/2023,19:05:38.528,-1206,-314,571,-384,34,329,573,22,121,29.600000,46.900002,979.830017
16/06/2023,19:05:38.537,-1063,-209,588,315,-78,543,573,22,121,29.600000,46.900002,979.830017
16/06/2023,19:05:38.546,-906,-116,554,315,-78,543,559,0,133,29.600000,46.900002,979.830017
16/06/2023,19:05:38.556,-757,-18,454,571,-36,528,565,3,123,29.600000,46.900002,979.830017
16/06/2023,19:05:38.566,-688,136,324,748,96,474,570,9,105,29.600000,46.900002,979.830017
16/06/2023,19:05:38.575,-854,263,240,892,258,362,586,-18,105,29.600000,46.900002,979.830017
16/06/2023,19:05:38.584,-1174,197,159,1033,477,111,582,-16,124,29.600000,47.299999,979.809998
16/06/2023,19:05:38.594,-1507,160,-35,969,807,-216,591,-15,108,29.600000,47.299999,979.809998
16/06/2023,19:05:38.603,-1716,255,-335,1062,972,-586,582,-27,117,29.600000,47.299999,979.809998
16/06/2023,19:05:38.613,-1716,255,-335,1144,846,-836,592,-22,136,29.600000,47.299999,979.809998
16/06/2023,19:05:38.621,-1697,276,-582,948,756,-811,592,-22,136,29.600000,47.299999,979.809998
16/06/2023,19:05:38.631,-1523,183,-562,486,670,-555,588,-33,154,29.600000,47.299999,979.809998
16/06/2023,19:05:38.641,-1239,165,-345,176,403,-345,585,-24,154,29.600000,47.299999,979.809998
16/06/2023,19:05:38.650,-902,181,-145,228,111,-214,594,-22,139,29.600000,47.299999,979.809998
16/06/2023,19:05:38.659,-621,154,-37,370,-37,-124,582,-9,124,29.600000,47.299999,979.809998
16/06/2023,19:05:38.669,-459,152,-15,489,20,-80,592,-21,138,29.600000,47.299999,979.809998
16/06/2023,19:05:38.678,-358,155,-84,671,223,-107,601,-28,144,29.600000,47.299999,979.809998
16/06/2023,19:05:38.687,-363,189,-221,951,443,-171,594,-45,151,29.600000,47.299999,979.809998
16/06/2023,19:05:38.697,-456,196,-311,1084,583,-296,588,-27,159,29.600000,47.299999,979.809998
16/06/2023,19:05:38.706,-580,213,-346,1062,632,-359,604,-37,142,29.600000,47.299999,979.809998
16/06/2023,19:05:38.727,-727,234,-383,1147,717,-375,604,-37,142,29.600000,47.299999,979.809998
16/06/2023,19:05:38.734,-1003,144,-343,965,747,-552,600,-46,175,29.600000,47.299999,979.809998
16/06/2023,19:05:38.744,-1105,55,-385,815,864,-556,616,-34,165,29.600000,47.299999,979.809998
16/06/2023,19:05:38.753,-1271,-96,-422,915,1194,-258,613,-49,183,29.600000,47.299999,979.809998
16/06/2023,19:05:38.762,-1509,-350,-348,1263,1362,439,645,-48,184,29.600000,47.299999,979.809998
16/06/2023,19:05:38.772,-1649,-512,-189,1658,1087,1121,630,-73,202,29.600000,47.299999,979.809998
16/06/2023,19:05:38.781,-1510,-533,-30,1895,660,1228,628,-66,205,29.600000,47.299999,979.809998
16/06/2023,19:05:38.791,-1193,-567,23,1782,298,966,603,-85,199,29.600000,47.299999,979.809998
16/06/2023,19:05:38.799,-907,-600,-20,1383,302,673,603,-85,199,29.600000,47.299999,979.809998
16/06/2023,19:05:38.809,-737,-592,-49,1035,427,478,609,-102,217,29.600000,47.299999,979.809998
16/06/2023,19:05:38.819,-689,-553,-62,814,520,326,618,-93,210,29.600000,47.299999,979.809998
16/06/2023,19:05:38.828,-703,-498,-80,766,496,257,625,-121,241,29.600000,47.299999,979.809998
16/06/2023,19:05:38.837,-745,-432,-86,810,473,231,625,-121,241,29.600000,47.299999,979.809998
16/06/2023,19:05:38.847,-787,-376,-60,841,466,192,616,-112,229,29.600000,47.299999,979.809998
16/06/2023,19:05:38.856,-824,-330,-41,843,443,180,630,-127,240,29.600000,47.299999,979.809998
16/06/2023,19:05:38.865,-885,-263,-59,877,417,170,616,-127,232,29.600000,47.299999,979.809998
16/06/2023,19:05:38.878,-962,-195,-79,877,417,170,613,-138,244,29.600000,47.299999,979.809998
16/06/2023,19:05:38.884,-1009,-164,-81,968,356,149,625,-138,255,29.600000,47.299999,979.809998
16/06/2023,19:05:38.893,-1016,-150,-75,1051,290,125,625,-138,255,29.600000,47.299999,979.809998
16/06/2023,19:05:38.902,-1011,-134,-55,1105,267,94,615,-153,256,29.600000,47.299999,979.809998
16/06/2023,19:05:38.912,-1010,-130,-23,1140,260,95,615,-136,253,29.600000,47.299999,979.809998
16/06/2023,19:05:38.922,-1014,-146,18,1141,266,111,634,-135,253,29.600000,47.299999,979.809998
16/06/2023,19:05:38.931,-1014,-161,76,1106,249,126,625,-147,279,29.600000,47.299999,979.809998
16/06/2023,19:05:38.940,-1001,-179,105,1019,208,116,615,-160,298,29.600000,47.299999,979.809998
16/06/2023,19:05:38.950,-977,-214,72,872,132,92,634,-166,288,29.600000,47.299999,979.809998
16/06/2023,19:05:38.959,-977,-214,72,704,47,59,618,-171,277,29.600000,47.299999,979.809998
16/06/2023,19:05:38.969,-954,-258,4,543,-16,26,609,-166,289,29.600000,47.299999,979.809998
16/06/2023,19:05:38.978,-937,-288,-78,474,-69,23,619,-153,291,29.600000,47.299999,979.809998
16/06/2023,19:05:38.987,-919,-284,-134,467,-48,53,619,-153,291,29.600000,47.299999,979.809998
16/06/2023,19:05:38.996,-910,-278,-150,521,6,56,621,-171,283,29.600000,47.299999,979.809998
16/06/2023,19:05:39.006,-917,-289,-141,597,3,72,613,-168,280,29.600000,47.299999,979.809998
16/06/2023,19:05:39.015,-949,-289,-147,706,-47,65,627,-162,280,29.600000,47.299999,979.809998
16/06/2023,19:05:39.025,-985,-289,-157,827,-65,33,615,-174,298,29.600000,47.299999,979.809998
16/06/2023,19:05:39.034,-987,-316,-136,912,-45,8,607,-175,292,29.600000,47.299999,979.809998
16/06/2023,19:05:39.044,-984,-339,-106,929,-6,25,607,-195,286,29.600000,47.299999,979.809998
16/06/2023,19:05:39.053,-1008,-353,-68,860,48,-2,618,-189,291,29.600000,47.299999,979.809998
16/06/2023,19:05:39.062,-1029,-394,-23,705,43,-32,606,-192,300,29.600000,47.299999,979.809998
16/06/2023,19:05:39.072,-1055,-442,0,466,-3,-39,621,-186,301,29.600000,47.299999,979.809998
16/06/2023,19:05:39.080,-1113,-504,5,194,-30,-2,621,-186,301,29.600000,47.299999,979.809998
16/06/2023,19:05:39.090,-1221,-573,-12,-66,-86,91,607,-201,301,29.600000,47.299999,979.809998
16/06/2023,19:05:39.100,-1328,-601,-60,-266,-80,166,604,-190,297,29.600000,47.299999,979.809998
16/06/2023,19:05:39.109,-1281,-568,-78,-218,160,212,610,-183,277,29.600000,47.299999,979.809998
16/06/2023,19:05:39.118,-1186,-462,71,12,230,306,609,-199,303,29.600000,47.299999,979.809998
16/06/2023,19:05:39.131,-1222,-326,279,106,-11,373,603,-190,303,29.600000,47.299999,979.809998
16/06/2023,19:05:39.137,-1262,-200,405,11,-333,353,600,-202,319,29.600000,47.299999,979.809998
16/06/2023,19:05:39.147,-1217,-100,497,-165,-671,302,606,-202,303,29.600000,47.299999,979.809998
16/06/2023,19:05:39.156,-1157,-22,517,-314,-953,259,603,-202,294,29.600000,47.299999,979.809998
16/06/2023,19:05:39.165,-1116,24,442,-380,-1225,221,592,-208,270,29.600000,47.299999,979.809998
16/06/2023,19:05:39.174,-1082,70,292,-362,-1473,221,592,-208,270,29.600000,47.299999,979.809998
16/06/2023,19:05:39.184,-1056,122,116,-266,-1579,150,579,-205,274,29.600000,47.299999,979.809998
16/06/2023,19:05:39.193,-1016,125,-104,-181,-1494,70,579,-205,274,29.600000,47.299999,979.809998
16/06/2023,19:05:39.203,-1065,150,-371,-32,-1372,-74,594,-205,252,29.600000,47.299999,979.809998
16/06/2023,19:05:39.212,-1194,181,-610,178,-1316,-352,588,-219,237,29.600000,47.299999,979.809998
16/06/2023,19:05:39.222,-1280,198,-753,502,-1336,-704,592,-210,223,29.600000,47.299999,979.809998
16/06/2023,19:05:39.231,-1280,204,-745,502,-1336,-704,580,-199,219,29.600000,47.299999,979.809998
16/06/2023,19:05:39.240,-1262,184,-574,755,-1195,-925,583,-196,214,29.600000,47.299999,979.809998
16/06/2023,19:05:39.250,-1262,97,-256,954,-1008,-842,589,-207,219,29.600000,47.299999,979.809998
16/06/2023,19:05:39.258,-1337,-39,159,940,-884,-397,589,-207,219,29.600000,47.299999,979.809998
16/06/2023,19:05:39.268,-1460,-133,411,513,-1018,73,601,-198,228,29.600000,47.299999,979.809998
16/06/2023,19:05:39.278,-1435,-195,295,-190,-1358,74,585,-198,219,29.600000,47.299999,979.809998
16/06/2023,19:05:39.287,-1287,-225,41,-741,-1494,-29,586,-205,214,29.600000,47.299999,979.809998
16/06/2023,19:05:39.296,-1100,-205,-130,-836,-1440,-84,582,-211,196,29.600000,47.299999,979.809998
16/06/2023,19:05:39.306,-1100,-205,-130,-643,-1298,28,567,-199,195,29.600000,47.299999,979.809998
