dd/mm/yyyy,hh:mm:ss.ms,accX[mg],accY[mg],accZ[mg],gyroX[mdps],gyroY[mdps],gyroZ[mdps],magX[mG],magY[mG],magZ[mG],T[degC],rH[%],Press[hPa],
16/06/2023,18:11:38.932,-1,20,990,-5,-4,-4,97,-93,-18,26.100000,48.099998,979.080017
16/06/2023,18:11:38.933,-1,20,990,-5,-4,-4,97,-93,-18,26.100000,48.099998,979.080017
16/06/2023,18:11:38.933,-1,20,990,-5,-4,-4,97,-93,-18,26.100000,48.099998,979.080017
16/06/2023,18:11:38.934,-1,20,990,-5,-4,-4,97,-93,-18,26.100000,48.099998,979.080017
16/06/2023,18:11:38.934,-1,20,990,-5,-4,-4,97,-93,-18,26.100000,48.099998,979.080017
16/06/2023,18:11:38.938,-1,20,990,-5,-4,-4,97,-93,-18,26.100000,48.099998,979.080017
16/06/2023,18:11:38.939,-1,20,990,-5,-4,-4,97,-93,-18,26.100000,48.099998,979.080017
16/06/2023,18:11:38.939,-1,20,990,-5,-4,-4,97,-93,-18,26.100000,48.099998,979.080017
16/06/2023,18:11:38.940,-1,20,990,-5,-4,-4,97,-93,-18,26.100000,48.099998,979.080017
16/06/2023,18:11:38.940,-1,20,990,-5,-4,-4,97,-93,-18,26.100000,48.099998,979.080017
16/06/2023,18:11:38.941,-1,20,990,-5,-4,-4,97,-93,-18,26.100000,48.099998,979.080017
16/06/2023,18:11:38.944,-1,20,990,-5,-4,-4,97,-93,-18,26.100000,48.099998,979.080017
16/06/2023,18:11:38.945,-1,20,990,-5,-4,-4,97,-93,-18,26.100000,48.099998,979.080017
16/06/2023,18:11:38.945,-1,20,990,-5,-4,-4,97,-93,-18,26.100000,48.099998,979.080017
16/06/2023,18:11:38.946,-1,20,990,-5,-4,-4,97,-93,-18,26.100000,48.099998,979.080017
16/06/2023,18:11:38.946,-1,20,990,-5,-4,-4,97,-93,-18,26.100000,48.099998,979.080017
16/06/2023,18:11:38.947,-1,20,990,-5,-4,-4,97,-93,-18,26.100000,48.099998,979.080017
16/06/2023,18:11:38.950,-1,20,990,-5,-4,-4,97,-93,-18,26.100000,48.099998,979.080017
16/06/2023,18:11:38.951,-1,20,990,-5,-4,-4,97,-93,-18,26.100000,48.099998,979.080017
16/06/2023,18:11:38.952,-1,20,990,-5,-4,-4,97,-93,-18,26.100000,48.099998,979.080017
16/06/2023,18:11:38.952,-1,20,990,-5,-4,-4,97,-93,-18,26.100000,48.099998,979.080017
16/06/2023,18:11:38.953,-1,20,990,-5,-4,-4,97,-93,-18,26.100000,48.099998,979.080017
16/06/2023,18:11:38.953,0,23,990,-5,-4,-4,97,-93,-18,26.100000,48.099998,979.080017
16/06/2023,18:11:38.958,0,23,990,-4,-4,-4,97,-94,-24,26.100000,48.099998,979.080017
16/06/2023,18:11:38.968,0,24,990,-4,-5,-3,105,-81,-7,26.100000,48.099998,979.080017
16/06/2023,18:11:38.977,0,23,990,-5,-5,-3,100,-114,-12,26.100000,48.099998,979.080017
16/06/2023,18:11:38.986,0,22,990,-5,-5,-4,103,-96,-7,26.100000,48.099998,979.080017
16/06/2023,18:11:38.996,-1,22,992,-5,-3,-4,90,-102,-7,26.100000,48.099998,979.080017
16/06/2023,18:11:39.004,-2,21,991,-4,-4,-4,90,-102,-7,26.100000,48.099998,979.080017
16/06/2023,18:11:39.024,0,23,989,-4,-4,-2,99,-112,-6,26.100000,48.099998,979.080017
16/06/2023,18:11:39.033,0,23,989,-5,-4,-3,112,-91,-19,26.100000,48.099998,979.080017
16/06/2023,18:11:39.043,0,24,991,-5,-4,-4,105,-88,-22,26.100000,48.099998,979.080017
16/06/2023,18:11:39.052,0,24,990,-4,-4,-3,106,-79,-25,26.100000,48.099998,979.080017
16/06/2023,18:11:39.061,1,22,991,-5,-4,-3,102,-96,-33,26.100000,48.099998,979.080017
16/06/2023,18:11:39.071,-1,23,992,-5,-4,-3,111,-105,-19,26.100000,48.099998,979.080017
16/06/2023,18:11:39.080,0,23,991,-4,-3,-3,115,-108,-28,26.100000,48.099998,979.080017
16/06/2023,18:11:39.089,0,20,992,-5,-4,-3,109,-91,-21,26.100000,48.099998,979.080017
16/06/2023,18:11:39.098,-3,21,992,-4,-4,-4,109,-91,-21,26.100000,48.099998,979.080017
16/06/2023,18:11:39.108,-1,22,990,-5,-5,-3,123,-108,-34,26.100000,48.099998,979.080017
16/06/2023,18:11:39.117,-1,22,991,-4,-5,-4,88,-99,-16,26.100000,48.099998,979.080017
16/06/2023,18:11:39.130,0,23,992,-5,-6,-3,91,-78,-10,26.100000,48.099998,979.080017
16/06/2023,18:11:39.136,0,21,991,-5,-6,-3,100,-103,-7,26.100000,48.099998,979.080017
16/06/2023,18:11:39.146,0,21,991,-5,-4,-4,100,-103,-18,26.100000,48.099998,979.080017
16/06/2023,18:11:39.155,0,22,991,-4,-4,-4,99,-115,-31,26.100000,48.099998,979.080017
16/06/2023,18:11:39.164,0,22,991,-4,-3,-3,124,-112,-31,26.100000,48.099998,979.080017
16/06/2023,18:11:39.174,0,23,991,-4,-3,-3,118,-109,-10,26.100000,48.099998,979.080017
16/06/2023,18:11:39.183,0,21,990,-4,-3,-3,85,-90,15,26.100000,48.099998,979.080017
16/06/2023,18:11:39.192,-2,19,991,-4,-3,-3,85,-90,15,26.100000,48.099998,979.080017
16/06/2023,18:11:39.201,-2,23,991,-4,-4,-4,102,-99,-33,26.100000,48.099998,979.080017
16/06/2023,18:11:39.211,-1,23,992,-5,-5,-4,103,-96,-12,26.100000,48.099998,979.080017
16/06/2023,18:11:39.221,-1,21,993,-4,-4,-4,105,-114,-12,26.100000,48.099998,979.080017
16/06/2023,18:11:39.230,0,21,993,-5,-4,-3,108,-88,-19,26.100000,48.099998,979.080017
16/06/2023,18:11:39.239,0,22,993,-5,-5,-3,106,-94,-16,26.100000,48.099998,979.080017
16/06/2023,18:11:39.249,0,20,993,-4,-4,-4,111,-106,-24,26.100000,48.099998,979.080017
16/06/2023,18:11:39.257,2,18,992,-5,-4,-3,100,-97,-19,26.100000,48.099998,979.080017
16/06/2023,18:11:39.267,2,21,990,-4,-4,-4,84,-100,-6,26.100000,48.099998,979.080017
16/06/2023,18:11:39.277,0,23,992,-4,-4,-4,105,-103,-24,26.100000,48.099998,979.080017
16/06/2023,18:11:39.286,0,23,993,-4,-4,-4,105,-103,-24,26.100000,48.099998,979.080017
16/06/2023,18:11:39.295,0,22,991,-4,-2,-3,99,-91,-24,26.100000,48.099998,979.080017
16/06/2023,18:11:39.305,-3,20,990,-4,-3,-2,109,-99,-24,26.100000,48.099998,979.080017
16/06/2023,18:11:39.314,-2,20,989,-5,-4,-3,102,-121,-7,26.100000,48.099998,979.080017
16/06/2023,18:11:39.324,-1,22,991,-4,-4,-3,97,-96,-18,26.100000,48.099998,979.080017
16/06/2023,18:11:39.333,-1,24,993,-4,-5,-3,105,-97,-15,26.100000,48.099998,979.080017
16/06/2023,18:11:39.342,0,24,991,-5,-4,-4,111,-103,-15,26.100000,48.099998,979.080017
16/06/2023,18:11:39.352,0,22,990,-5,-3,-4,106,-81,-24,26.100000,48.099998,979.080017
16/06/2023,18:11:39.361,0,23,992,-5,-3,-3,106,-102,-18,26.100000,48.099998,979.080017
16/06/2023,18:11:39.370,0,25,993,-5,-6,-2,106,-102,-18,26.100000,48.099998,979.080017
16/06/2023,18:11:39.379,0,23,994,-4,-5,-3,118,-84,-30,26.100000,48.099998,979.080017
16/06/2023,18:11:39.389,-1,21,990,-4,-2,-3,126,-109,-28,26.100000,48.099998,979.080017
16/06/2023,18:11:39.399,0,23,988,-4,-3,-3,106,-118,-21,26.100000,48.099998,979.080017
16/06/2023,18:11:39.408,-1,22,991,-5,-4,-3,100,-96,-30,26.100000,48.099998,979.080017
16/06/2023,18:11:39.417,-2,21,992,-5,-4,-3,112,-106,-19,26.100000,48.099998,979.080017
16/06/2023,18:11:39.427,-2,21,993,-4,-5,-3,112,-91,-18,26.100000,48.099998,979.080017
16/06/2023,18:11:39.436,-1,22,993,-4,-4,-4,108,-103,-24,26.100000,48.099998,979.080017
16/06/2023,18:11:39.445,0,23,992,-4,-5,-4,106,-112,-16,26.100000,48.099998,979.080017
16/06/2023,18:11:39.455,-1,22,992,-3,-4,-2,106,-99,-30,26.100000,48.099998,979.080017
16/06/2023,18:11:39.464,-1,24,992,-5,-4,-3,106,-99,-30,26.100000,48.099998,979.080017
16/06/2023,18:11:39.473,-1,24,992,-5,-3,-3,114,-109,-18,26.100000,48.099998,979.080017
16/06/2023,18:11:39.483,0,22,993,-5,-5,-4,88,-96,-15,26.100000,48.099998,979.080017
16/06/2023,18:11:39.492,0,22,993,-4,-5,-4,111,-97,-15,26.100000,48.099998,979.080017
16/06/2023,18:11:39.502,-3,21,991,-4,-4,-4,105,-85,-18,26.100000,48.099998,979.080017
16/06/2023,18:11:39.511,-2,19,992,-5,-4,-4,93,-84,-25,26.100000,48.099998,979.080017
16/06/2023,18:11:39.520,-1,19,992,-5,-3,-3,90,-84,-27,26.100000,48.099998,979.080017
16/06/2023,18:11:39.530,0,22,990,-4,-4,-2,108,-97,-22,26.100000,48.099998,979.080017
16/06/2023,18:11:39.539,0,21,991,-5,-5,-3,126,-102,-25,26.100000,48.099998,979.080017
16/06/2023,18:11:39.548,-2,19,994,-5,-2,-4,115,-102,-28,26.100000,48.099998,979.080017
16/06/2023,18:11:39.557,-3,22,993,-5,-4,-3,115,-102,-28,26.100000,48.099998,979.080017
16/06/2023,18:11:39.567,-2,23,991,-4,-4,-4,103,-112,-25,26.100000,48.099998,979.080017
16/06/2023,18:11:39.577,-1,21,990,-5,-5,-2,118,-102,-16,26.100000,48.099998,979.080017
16/06/2023,18:11:39.586,0,21,991,-5,-4,-3,106,-87,-16,26.100000,48.099998,979.080017
16/06/2023,18:11:39.595,0,23,993,-4,-3,-3,115,-100,-19,26.100000,48.099998,979.080017
16/06/2023,18:11:39.605,0,21,992,-5,-3,-3,108,-108,-15,26.100000,48.099998,979.080017
16/06/2023,18:11:39.614,0,22,992,-5,-3,-4,109,-93,-24,26.100000,48.099998,979.080017
16/06/2023,18:11:39.623,0,23,991,-4,-3,-4,118,-91,-16,26.100000,48.099998,979.080017
16/06/2023,18:11:39.633,0,22,994,-5,-6,-2,105,-111,-22,26.100000,48.099998,979.080017
16/06/2023,18:11:39.642,-1,21,995,-5,-4,-4,105,-111,-22,26.100000,48.099998,979.080017
16/06/2023,18:11:39.651,0,24,992,-4,-4,-4,93,-105,-13,26.100000,48.099998,979.080017
16/06/2023,18:11:39.661,1,23,991,-4,-4,-3,103,-102,-13,26.100000,48.099998,979.080017
16/06/2023,18:11:39.670,0,22,992,-4,-4,-3,115,-90,-12,26.100000,48.099998,979.080017
16/06/2023,18:11:39.688,-1,23,993,-5,-3,-2,105,-105,-18,26.100000,48.099998,979.080017
16/06/2023,18:11:39.698,-1,23,995,-4,-4,-4,108,-99,-21,26.100000,48.099998,979.080017
16/06/2023,18:11:39.708,1,22,992,-4,-4,-4,103,-121,-21,26.100000,48.099998,979.080017
16/06/2023,18:11:39.717,1,19,993,-4,-4,-3,109,-109,-19,26.100000,48.099998,979.080017
16/06/2023,18:11:39.726,-1,22,994,-4,-4,-4,112,-121,-31,26.100000,48.099998,979.080017
16/06/2023,18:11:39.735,0,22,991,-4,-4,-4,112,-121,-31,26.100000,48.099998,979.080017
16/06/2023,18:11:39.745,0,24,991,-4,-4,-4,90,-102,-3,26.100000,48.099998,979.080017
16/06/2023,18:11:39.755,0,24,993,-4,-3,-5,90,-102,-3,26.100000,48.099998,979.080017
16/06/2023,18:11:39.764,0,22,993,-4,-3,-5,105,-102,-16,26.100000,48.099998,979.080017
16/06/2023,18:11:39.773,0,23,993,-4,-4,-4,99,-106,-6,28.600000,47.299999,979.140015
16/06/2023,18:11:39.783,0,22,993,-4,-4,-4,120,-93,-22,28.600000,47.299999,979.140015
16/06/2023,18:11:39.792,0,24,992,-4,-4,-3,121,-97,-3,28.600000,47.299999,979.140015
16/06/2023,18:11:39.801,-1,24,991,-5,-5,-4,94,-94,-21,28.600000,47.299999,979.140015
16/06/2023,18:11:39.810,-1,24,991,-5,-5,-4,94,-94,-21,28.600000,47.299999,979.140015
16/06/2023,18:11:39.820,-1,23,990,-5,-5,-4,112,-90,-13,28.600000,47.299999,979.140015
16/06/2023,18:11:39.830,-3,22,992,-4,-4,-3,105,-106,-9,28.600000,47.299999,979.140015
16/06/2023,18:11:39.839,-3,22,992,-5,-4,-3,103,-100,-13,28.600000,47.299999,979.140015
16/06/2023,18:11:39.848,-2,24,993,-5,-4,-4,112,-114,3,28.600000,47.299999,979.140015
16/06/2023,18:11:39.858,0,22,992,-4,-5,-3,100,-103,-3,28.600000,47.299999,979.140015
16/06/2023,18:11:39.867,-1,21,990,-3,-4,-4,111,-105,-36,28.600000,47.299999,979.140015
16/06/2023,18:11:39.876,-2,23,991,-5,-3,-5,90,-97,-7,28.600000,47.299999,979.140015
16/06/2023,18:11:39.886,-2,23,991,-4,-5,-4,108,-97,-12,28.600000,47.299999,979.140015
16/06/2023,18:11:39.895,-1,23,990,-4,-4,-3,94,-91,-10,28.600000,47.299999,979.140015
16/06/2023,18:11:39.904,-2,23,991,-4,-3,-2,94,-91,-10,28.600000,47.299999,979.140015
16/06/2023,18:11:39.914,-4,23,993,-5,-2,-3,106,-81,-6,28.600000,47.299999,979.140015
16/06/2023,18:11:39.923,-3,21,993,-5,-4,-4,106,-81,-6,28.600000,47.299999,979.140015
16/06/2023,18:11:39.933,0,21,991,-4,-4,-4,94,-94,-15,28.600000,47.299999,979.140015
16/06/2023,18:11:39.942,1,21,990,-3,-4,-4,108,-78,-12,28.600000,47.299999,979.140015
16/06/2023,18:11:39.951,0,22,991,-4,-4,-4,120,-117,-24,28.600000,47.299999,979.140015
16/06/2023,18:11:39.961,0,23,991,-4,-4,-4,109,-106,-21,28.600000,47.299999,979.140015
16/06/2023,18:11:39.970,-1,22,990,-5,-6,-3,87,-109,-33,28.600000,47.299999,979.140015
16/06/2023,18:11:39.979,-1,21,991,-5,-4,-4,99,-103,-9,28.600000,47.299999,979.140015
16/06/2023,18:11:39.988,-1,21,994,-5,-3,-4,99,-103,-9,28.600000,47.299999,979.140015
16/06/2023,18:11:39.998,-2,22,994,-5,-3,-3,99,-90,-24,28.600000,47.299999,979.140015
16/06/2023,18:11:40.008,-1,23,992,-4,-4,-3,102,-103,-37,28.600000,47.299999,979.140015
16/06/2023,18:11:40.017,-1,22,993,-4,-5,-4,111,-109,-27,28.600000,47.299999,979.140015
16/06/2023,18:11:40.026,0,23,993,-4,-6,-4,103,-106,-33,28.600000,47.299999,979.140015
16/06/2023,18:11:40.036,-1,21,993,-5,-5,-4,114,-105,-9,28.600000,47.299999,979.140015
16/06/2023,18:11:40.045,-2,22,995,-4,-5,-4,102,-103,-24,28.600000,47.299999,979.140015
16/06/2023,18:11:40.054,0,23,994,-4,-4,-3,108,-111,-16,28.600000,47.299999,979.140015
16/06/2023,18:11:40.064,0,23,991,-4,-4,-3,91,-105,-6,28.600000,47.299999,979.140015
16/06/2023,18:11:40.073,0,25,990,-4,-4,-3,103,-105,-13,28.600000,47.299999,979.140015
16/06/2023,18:11:40.082,-2,24,992,-5,-5,-4,103,-105,-13,28.600000,47.299999,979.140015
16/06/2023,18:11:40.091,-1,24,992,-5,-5,-4,102,-100,-1,28.600000,47.299999,979.140015
16/06/2023,18:11:40.101,-1,24,992,-4,-5,-4,93,-105,-19,28.600000,47.299999,979.140015
16/06/2023,18:11:40.111,-3,22,990,-4,-5,-4,118,-100,-9,28.600000,47.299999,979.140015
16/06/2023,18:11:40.120,-4,22,989,-4,-5,-3,109,-102,-22,28.600000,47.299999,979.140015
16/06/2023,18:11:40.129,-3,21,990,-5,-5,-2,103,-85,-22,28.600000,47.299999,979.140015
16/06/2023,18:11:40.139,0,20,991,-5,-4,-4,105,-106,-22,28.600000,47.299999,979.140015
16/06/2023,18:11:40.148,0,19,993,-4,-3,-4,102,-88,-46,28.600000,47.299999,979.140015
16/06/2023,18:11:40.157,-1,20,993,-4,-4,-4,108,-106,-13,28.600000,47.299999,979.140015
16/06/2023,18:11:40.167,-1,20,990,-3,-5,-3,108,-93,-19,28.600000,47.299999,979.140015
16/06/2023,18:11:40.176,-1,20,990,-3,-4,-3,108,-93,-19,28.600000,47.299999,979.140015
16/06/2023,18:11:40.185,-2,24,991,-4,-4,-4,120,-88,-33,28.600000,47.299999,979.140015
16/06/2023,18:11:40.195,-2,25,993,-4,-4,-4,105,-91,-39,28.600000,47.299999,979.140015
16/06/2023,18:11:40.204,0,24,992,-4,-4,-4,96,-96,-22,28.600000,47.299999,979.140015
16/06/2023,18:11:40.214,0,21,992,-4,-4,-4,102,-97,-42,28.600000,47.299999,979.140015
16/06/2023,18:11:40.223,-2,19,991,-4,-4,-4,100,-105,-16,28.600000,47.299999,979.140015
16/06/2023,18:11:40.232,-1,22,988,-4,-2,-3,112,-94,-3,28.600000,47.299999,979.140015
16/06/2023,18:11:40.242,-1,24,991,-4,-4,-3,99,-99,-10,28.600000,47.299999,979.140015
16/06/2023,18:11:40.251,-1,23,993,-4,-3,-4,103,-103,-13,28.600000,47.299999,979.140015
16/06/2023,18:11:40.260,-2,20,993,-4,-4,-4,103,-103,-13,28.600000,47.299999,979.140015
16/06/2023,18:11:40.269,-1,21,992,-5,-4,-4,114,-97,-7,28.600000,47.299999,979.140015
16/06/2023,18:11:40.279,-1,21,989,-3,-3,-2,126,-102,-24,28.600000,47.299999,979.140015
16/06/2023,18:11:40.289,-2,19,990,-4,-4,-2,105,-97,-22,28.600000,47.299999,979.140015
16/06/2023,18:11:40.301,-1,18,992,-4,-6,-3,114,-93,-33,28.600000,47.299999,979.140015
16/06/2023,18:11:40.307,-3,21,992,-4,-5,-4,109,-105,3,28.600000,47.299999,979.140015
16/06/2023,18:11:40.317,-2,24,994,-4,-6,-3,112,-91,-37,28.600000,47.299999,979.140015
16/06/2023,18:11:40.326,-1,21,994,-5,-5,-2,93,-84,-12,28.600000,47.299999,979.140015
16/06/2023,18:11:40.335,-2,20,992,-4,-4,-4,97,-93,-21,28.600000,47.299999,979.140015
16/06/2023,18:11:40.345,-1,22,994,-4,-4,-4,108,-94,-31,28.600000,47.299999,979.140015
16/06/2023,18:11:40.363,0,22,991,-4,-4,-3,94,-82,-4,28.600000,47.299999,979.140015
16/06/2023,18:11:40.373,0,23,990,-4,-5,-3,102,-115,-34,28.600000,47.299999,979.140015
16/06/2023,18:11:40.382,0,22,992,-5,-5,-4,105,-93,-19,28.600000,47.299999,979.140015
16/06/2023,18:11:40.392,0,22,994,-4,-5,-3,100,-97,-21,28.600000,47.299999,979.140015
16/06/2023,18:11:40.401,-2,24,993,-4,-5,-3,102,-105,-16,28.600000,47.299999,979.140015
16/06/2023,18:11:40.410,-1,24,993,-3,-5,-3,109,-96,-22,28.600000,47.299999,979.140015
16/06/2023,18:11:40.420,-1,23,993,-4,-4,-4,106,-103,-28,28.600000,47.299999,979.140015
16/06/2023,18:11:40.429,-2,23,991,-4,-4,-4,105,-105,-13,28.600000,47.299999,979.140015
16/06/2023,18:11:40.438,0,21,990,-4,-4,-3,103,-96,-28,28.600000,47.299999,979.140015
16/06/2023,18:11:40.447,2,20,991,-4,-5,-3,103,-96,-28,28.600000,47.299999,979.140015
16/06/2023,18:11:40.457,1,21,991,-4,-5,-3,100,-96,-21,28.600000,47.299999,979.140015
16/06/2023,18:11:40.467,0,22,993,-4,-4,-4,109,-102,-13,28.600000,47.299999,979.140015
16/06/2023,18:11:40.476,0,22,994,-3,-4,-4,91,-81,-18,28.600000,47.299999,979.140015
16/06/2023,18:11:40.485,-2,23,992,-4,-4,-3,112,-103,-13,28.600000,47.299999,979.140015
16/06/2023,18:11:40.495,-2,22,992,-4,-5,-2,120,-99,-7,28.600000,47.299999,979.140015
16/06/2023,18:11:40.504,0,20,993,-4,-4,-3,106,-99,-22,28.600000,47.299999,979.140015
16/06/2023,18:11:40.513,0,20,993,-4,-4,-3,112,-90,-28,28.600000,47.299999,979.140015
16/06/2023,18:11:40.523,-2,20,992,-3,-3,-3,102,-117,-24,28.600000,47.299999,979.140015
16/06/2023,18:11:40.532,-2,21,990,-4,-5,-4,102,-117,-24,28.600000,47.299999,979.140015
16/06/2023,18:11:40.541,0,22,991,-4,-4,-3,97,-109,-22,28.600000,47.299999,979.140015
16/06/2023,18:11:40.551,-1,21,993,-5,-4,-3,103,-114,-16,28.600000,47.299999,979.140015
16/06/2023,18:11:40.560,-1,22,993,-4,-3,-3,111,-96,-33,28.600000,47.299999,979.140015
16/06/2023,18:11:40.570,0,22,993,-5,-4,-3,117,-114,-7,28.600000,47.299999,979.140015
16/06/2023,18:11:40.579,-2,21,994,-4,-4,-3,108,-105,-6,28.600000,47.299999,979.140015
16/06/2023,18:11:40.588,-2,19,992,-4,-6,-3,106,-90,-12,28.600000,47.299999,979.140015
16/06/2023,18:11:40.598,-2,21,990,-4,-6,-3,105,-91,-25,28.600000,47.299999,979.140015
16/06/2023,18:11:40.607,-2,23,988,-4,-5,-3,103,-100,-16,28.600000,47.299999,979.140015
16/06/2023,18:11:40.617,-2,23,988,-4,-4,-3,100,-105,-28,28.600000,47.299999,979.140015
16/06/2023,18:11:40.625,-2,22,992,-5,-4,-4,100,-105,-28,28.600000,47.299999,979.140015
16/06/2023,18:11:40.635,-1,21,992,-5,-3,-4,82,-105,-39,28.600000,47.299999,979.140015
16/06/2023,18:11:40.645,0,20,990,-4,-3,-4,106,-106,0,28.600000,47.299999,979.140015
16/06/2023,18:11:40.654,-2,21,991,-4,-5,-3,115,-100,-10,28.600000,47.299999,979.140015
16/06/2023,18:11:40.663,-2,22,991,-4,-4,-3,105,-93,-6,28.600000,47.299999,979.140015
16/06/2023,18:11:40.673,-1,22,993,-5,-4,-4,108,-96,-3,28.600000,47.299999,979.140015
16/06/2023,18:11:40.682,-2,21,992,-4,-5,-4,120,-99,-13,28.600000,47.299999,979.140015
16/06/2023,18:11:40.691,-1,22,991,-4,-4,-4,115,-106,-21,28.600000,47.299999,979.140015
16/06/2023,18:11:40.701,-2,22,991,-5,-3,-4,96,-87,-12,28.600000,47.299999,979.140015
16/06/2023,18:11:40.710,-1,18,991,-5,-3,-3,96,-87,-12,28.600000,47.299999,979.140015
16/06/2023,18:11:40.719,-1,17,992,-4,-5,-3,100,-106,-28,28.600000,47.299999,979.140015
16/06/2023,18:11:40.729,0,21,991,-4,-4,-3,102,-114,-27,28.600000,47.299999,979.140015
16/06/2023,18:11:40.738,0,22,990,-4,-3,-3,105,-106,-15,28.600000,47.299999,979.140015
16/06/2023,18:11:40.748,0,20,991,-5,-3,-5,99,-111,-19,28.600000,47.299999,979.140015
16/06/2023,18:11:40.757,-2,22,990,-4,-3,-3,114,-96,-7,28.600000,47.299999,979.140015
16/06/2023,18:11:40.766,-2,26,991,-5,-4,-3,120,-85,-19,28.600000,47.299999,979.140015
16/06/2023,18:11:40.776,0,22,992,-5,-4,-3,118,-93,-25,28.600000,47.299999,979.140015
16/06/2023,18:11:40.785,-2,21,993,-5,-4,-3,120,-106,-12,28.600000,47.299999,979.140015
16/06/2023,18:11:40.795,-1,23,992,-4,-4,-3,108,-85,-21,28.600000,47.299999,979.140015
16/06/2023,18:11:40.803,0,20,991,-4,-3,-3,108,-85,-21,28.600000,47.299999,979.140015
16/06/2023,18:11:40.813,-1,20,991,-4,-4,-3,93,-100,-10,28.600000,47.299999,979.140015
16/06/2023,18:11:40.823,0,21,992,-5,-4,-3,106,-91,-15,28.600000,47.099998,979.159973
16/06/2023,18:11:40.832,1,20,991,-5,-4,-3,117,-99,-18,28.600000,47.099998,979.159973
16/06/2023,18:11:40.841,-1,23,991,-5,-4,-3,115,-91,-7,28.600000,47.099998,979.159973
16/06/2023,18:11:40.851,-1,23,991,-5,-5,-3,106,-105,-24,28.600000,47.099998,979.159973
16/06/2023,18:11:40.863,0,21,993,-5,-4,-4,115,-96,-21,28.600000,47.099998,979.159973
16/06/2023,18:11:40.869,0,21,993,-4,-4,-4,97,-90,0,28.600000,47.099998,979.159973
16/06/2023,18:11:40.878,0,21,993,-4,-5,-3,97,-90,0,28.600000,47.099998,979.159973
16/06/2023,18:11:40.888,0,20,992,-5,-6,-4,126,-97,-16,28.600000,47.099998,979.159973
16/06/2023,18:11:40.898,1,22,992,-4,-7,-3,115,-99,-28,28.600000,47.099998,979.159973
16/06/2023,18:11:40.907,0,22,991,-4,-4,-3,112,-97,-7,28.600000,47.099998,979.159973
16/06/2023,18:11:40.916,0,19,991,-4,-3,-4,108,-106,-6,28.600000,47.099998,979.159973
16/06/2023,18:11:40.926,0,19,991,-4,-4,-3,96,-108,-18,28.600000,47.099998,979.159973
16/06/2023,18:11:40.934,-1,20,991,-5,-4,-4,100,-108,-25,28.600000,47.099998,979.159973
16/06/2023,18:11:40.944,0,20,993,-5,-4,-4,109,-109,-37,28.600000,47.099998,979.159973
16/06/2023,18:11:40.954,0,20,994,-5,-4,-4,117,-106,-7,28.600000,47.099998,979.159973
16/06/2023,18:11:40.963,0,21,992,-4,-4,-3,121,-96,-1,28.600000,47.099998,979.159973
16/06/2023,18:11:40.975,1,22,991,-4,-4,-3,121,-96,-1,28.600000,47.099998,979.159973
16/06/2023,18:11:40.982,0,21,992,-5,-3,-3,109,-99,-13,28.600000,47.099998,979.159973
16/06/2023,18:11:40.991,0,21,993,-4,-4,-4,91,-102,-22,28.600000,47.099998,979.159973
16/06/2023,18:11:41.001,0,21,994,-5,-3,-4,96,-108,-12,28.600000,47.099998,979.159973
16/06/2023,18:11:41.010,-1,21,992,-5,-3,-3,100,-106,-16,28.600000,47.099998,979.159973
16/06/2023,18:11:41.019,-1,21,992,-4,-4,-3,123,-109,-22,28.600000,47.099998,979.159973
16/06/2023,18:11:41.038,0,25,990,-4,-4,-3,118,-84,-7,28.600000,47.099998,979.159973
16/06/2023,18:11:41.047,0,22,992,-5,-4,-3,105,-97,-6,28.600000,47.099998,979.159973
16/06/2023,18:11:41.056,0,20,993,-4,-4,-4,105,-97,-6,28.600000,47.099998,979.159973
16/06/2023,18:11:41.066,0,21,992,-4,-4,-4,103,-108,-25,28.600000,47.099998,979.159973
16/06/2023,18:11:41.076,0,21,990,-4,-4,-3,114,-106,-12,28.600000,47.099998,979.159973
16/06/2023,18:11:41.085,-1,22,990,-4,-5,-3,123,-106,-25,28.600000,47.099998,979.159973
16/06/2023,18:11:41.094,-1,22,992,-4,-5,-2,123,-90,-21,28.600000,47.099998,979.159973
16/06/2023,18:11:41.104,0,22,995,-5,-4,-3,112,-85,-15,28.600000,47.099998,979.159973
16/06/2023,18:11:41.113,-3,24,993,-5,-4,-4,108,-106,-33,28.600000,47.099998,979.159973
16/06/2023,18:11:41.122,-3,21,989,-5,-4,-4,108,-108,-37,28.600000,47.099998,979.159973
16/06/2023,18:11:41.132,-1,19,991,-4,-3,-3,111,-93,-12,28.600000,47.099998,979.159973
16/06/2023,18:11:41.141,-1,19,991,-4,-3,-4,102,-99,-33,28.600000,47.099998,979.159973
16/06/2023,18:11:41.150,0,21,990,-4,-3,-3,102,-99,-33,28.600000,47.099998,979.159973
16/06/2023,18:11:41.159,0,22,992,-4,-3,-3,102,-91,-27,28.600000,47.099998,979.159973
16/06/2023,18:11:41.169,0,20,992,-4,-2,-3,112,-93,-13,28.600000,47.099998,979.159973
16/06/2023,18:11:41.179,0,22,992,-4,-3,-4,91,-105,-22,28.600000,47.099998,979.159973
16/06/2023,18:11:41.188,0,22,992,-5,-3,-3,114,-103,-18,28.600000,47.099998,979.159973
16/06/2023,18:11:41.197,0,21,991,-5,-3,-3,100,-114,-27,28.600000,47.099998,979.159973
16/06/2023,18:11:41.207,0,22,990,-5,-3,-2,117,-78,-18,28.600000,47.099998,979.159973
16/06/2023,18:11:41.216,0,22,990,-4,-3,-4,106,-103,-22,28.600000,47.099998,979.159973
16/06/2023,18:11:41.225,-2,21,990,-3,-4,-4,127,-103,-12,28.600000,47.099998,979.159973
16/06/2023,18:11:41.235,-2,21,991,-3,-4,-2,99,-91,-3,28.600000,47.099998,979.159973
16/06/2023,18:11:41.244,-2,22,989,-4,-4,-2,99,-91,-3,28.600000,47.099998,979.159973
16/06/2023,18:11:41.253,-3,23,991,-4,-4,-3,111,-109,-15,28.600000,47.099998,979.159973
16/06/2023,18:11:41.263,-1,21,992,-4,-6,-2,103,-96,-7,28.600000,47.099998,979.159973
16/06/2023,18:11:41.272,0,20,989,-4,-3,-4,103,-96,-7,28.600000,47.099998,979.159973
16/06/2023,18:11:41.282,-1,22,990,-5,-3,-4,99,-99,-31,28.600000,47.099998,979.159973
16/06/2023,18:11:41.291,-2,22,993,-4,-4,-3,102,-87,-21,28.600000,47.099998,979.159973
16/06/2023,18:11:41.300,-2,20,993,-4,-4,-3,103,-108,-21,28.600000,47.099998,979.159973
16/06/2023,18:11:41.310,0,21,990,-5,-4,-4,118,-105,-16,28.600000,47.099998,979.159973
16/06/2023,18:11:41.319,0,24,990,-5,-7,-3,103,-105,-25,28.600000,47.099998,979.159973
16/06/2023,18:11:41.328,0,24,993,-5,-5,-3,103,-105,-25,28.600000,47.099998,979.159973
16/06/2023,18:11:41.337,0,22,996,-5,-4,-3,123,-109,-33,28.600000,47.099998,979.159973
16/06/2023,18:11:41.347,0,23,994,-5,-5,-3,117,-100,-9,28.600000,47.099998,979.159973
16/06/2023,18:11:41.357,-1,22,991,-4,-4,-4,93,-106,-21,28.600000,47.099998,979.159973
16/06/2023,18:11:41.366,-2,20,992,-5,-5,-4,108,-90,-9,28.600000,47.099998,979.159973
16/06/2023,18:11:41.375,-4,20,992,-4,-4,-3,108,-88,-19,28.600000,47.099998,979.159973
16/06/2023,18:11:41.385,-2,19,990,-4,-4,-3,97,-109,-12,28.600000,47.099998,979.159973
16/06/2023,18:11:41.394,0,21,991,-4,-5,-3,114,-103,-28,28.600000,47.099998,979.159973
16/06/2023,18:11:41.403,0,22,992,-3,-6,-4,99,-118,-25,28.600000,47.099998,979.159973
16/06/2023,18:11:41.413,1,22,991,-4,-5,-3,111,-94,-10,28.600000,47.099998,979.159973
16/06/2023,18:11:41.422,2,21,990,-5,-4,-3,111,-94,-10,28.600000,47.099998,979.159973
16/06/2023,18:11:41.432,0,21,991,-4,-3,-3,102,-94,-6,28.600000,47.099998,979.159973
16/06/2023,18:11:41.441,-2,20,992,-4,-4,-4,102,-94,-6,28.600000,47.099998,979.159973
16/06/2023,18:11:41.450,-2,20,991,-4,-4,-3,84,-91,-3,28.600000,47.099998,979.159973
16/06/2023,18:11:41.460,0,19,992,-5,-3,-3,108,-106,-19,28.600000,47.099998,979.159973
16/06/2023,18:11:41.469,1,18,992,-5,-3,-4,105,-106,-25,28.600000,47.099998,979.159973
16/06/2023,18:11:41.478,0,20,993,-6,-4,-4,106,-112,-19,28.600000,47.099998,979.159973
16/06/2023,18:11:41.488,-1,20,990,-6,-4,-4,124,-108,-31,28.600000,47.099998,979.159973
16/06/2023,18:11:41.497,-1,21,990,-5,-3,-2,99,-102,-19,28.600000,47.099998,979.159973
16/06/2023,18:11:41.506,-3,22,993,-4,-3,-3,99,-102,-19,28.600000,47.099998,979.159973
16/06/2023,18:11:41.515,-4,23,992,-4,-4,-4,111,-76,-19,28.600000,47.099998,979.159973
16/06/2023,18:11:41.525,-2,22,991,-5,-3,-3,117,-96,-13,28.600000,47.099998,979.159973
16/06/2023,18:11:41.535,0,20,991,-5,-4,-3,97,-99,-15,28.600000,47.099998,979.159973
16/06/2023,18:11:41.544,0,22,991,-5,-4,-3,111,-109,-15,28.600000,47.099998,979.159973
16/06/2023,18:11:41.553,-2,20,992,-4,-4,-4,96,-94,-22,28.600000,47.099998,979.159973
16/06/2023,18:11:41.562,-2,20,992,-4,-4,-3,91,-82,-34,28.600000,47.099998,979.159973
16/06/2023,18:11:41.572,-2,20,993,-3,-4,-2,93,-88,-30,28.600000,47.099998,979.159973
16/06/2023,18:11:41.582,0,21,992,-4,-4,-3,100,-91,-22,28.600000,47.099998,979.159973
16/06/2023,18:11:41.590,0,20,992,-4,-4,-3,100,-91,-22,28.600000,47.099998,979.159973
16/06/2023,18:11:41.600,0,19,990,-4,-7,-4,96,-88,-9,28.600000,47.099998,979.159973
16/06/2023,18:11:41.610,0,21,991,-4,-4,-4,94,-94,-25,28.600000,47.099998,979.159973
16/06/2023,18:11:41.619,0,21,992,-4,-4,-3,103,-103,-18,28.600000,47.099998,979.159973
16/06/2023,18:11:41.628,0,21,991,-5,-4,-3,102,-91,-16,28.600000,47.099998,979.159973
16/06/2023,18:11:41.638,0,21,993,-4,-4,-3,97,-90,-16,28.600000,47.099998,979.159973
16/06/2023,18:11:41.647,0,21,995,-4,-4,-3,94,-82,-25,28.600000,47.099998,979.159973
16/06/2023,18:11:41.656,0,21,993,-4,-6,-4,99,-76,-22,28.600000,47.099998,979.159973
16/06/2023,18:11:41.666,-2,21,992,-4,-5,-4,114,-96,-21,28.600000,47.099998,979.159973
16/06/2023,18:11:41.675,-1,21,993,-5,-4,-4,114,-96,-21,28.600000,47.099998,979.159973
16/06/2023,18:11:41.684,1,20,993,-4,-4,-4,106,-100,-18,28.600000,47.099998,979.159973
16/06/2023,18:11:41.694,0,21,993,-4,-5,-4,106,-106,-24,28.600000,47.099998,979.159973
16/06/2023,18:11:41.716,0,24,992,-5,-4,-4,109,-103,-25,28.600000,47.099998,979.159973
16/06/2023,18:11:41.722,0,22,989,-5,-5,-4,105,-85,-19,28.600000,47.099998,979.159973
16/06/2023,18:11:41.731,0,22,991,-5,-5,-4,120,-94,-21,28.600000,47.099998,979.159973
16/06/2023,18:11:41.741,0,20,992,-4,-5,-3,108,-103,-21,28.600000,47.099998,979.159973
16/06/2023,18:11:41.750,-1,18,991,-4,-4,-3,118,-94,-12,28.600000,47.099998,979.159973
16/06/2023,18:11:41.760,0,19,989,-4,-4,-2,103,-106,-18,28.600000,47.099998,979.159973
16/06/2023,18:11:41.772,0,21,991,-4,-4,-2,103,-106,-18,28.600000,47.099998,979.159973
16/06/2023,18:11:41.778,0,22,994,-4,-3,-3,94,-93,-7,28.600000,47.099998,979.159973
16/06/2023,18:11:41.788,0,21,994,-4,-4,-3,118,-106,-1,28.600000,47.099998,979.159973
16/06/2023,18:11:41.797,-2,22,991,-4,-4,-4,88,-100,-16,28.600000,47.099998,979.159973
16/06/2023,18:11:41.806,-3,23,991,-5,-3,-5,97,-105,-27,28.600000,47.099998,979.159973
16/06/2023,18:11:41.816,-2,23,993,-4,-3,-4,96,-100,-7,28.600000,47.099998,979.159973
16/06/2023,18:11:41.825,1,21,994,-5,-4,-3,87,-94,9,28.600000,47.099998,979.159973
16/06/2023,18:11:41.834,0,20,992,-5,-4,-3,105,-109,-16,28.600000,47.099998,979.159973
16/06/2023,18:11:41.844,-2,22,992,-5,-4,-3,102,-96,-16,28.600000,47.099998,979.159973
16/06/2023,18:11:41.853,0,22,992,-4,-4,-4,114,-96,-24,28.600000,47.099998,979.159973
16/06/2023,18:11:41.862,0,21,992,-5,-4,-4,114,-96,-24,28.600000,47.099998,979.159973
16/06/2023,18:11:41.872,-2,23,992,-5,-4,-4,117,-108,-4,28.600000,47.299999,979.070007
16/06/2023,18:11:41.881,-3,22,992,-5,-3,-4,102,-111,-13,28.600000,47.299999,979.070007
16/06/2023,18:11:41.891,-2,21,991,-4,-3,-4,111,-109,-18,28.600000,47.299999,979.070007
16/06/2023,18:11:41.900,-2,22,991,-4,-3,-4,100,-100,-31,28.600000,47.299999,979.070007
16/06/2023,18:11:41.909,-2,22,991,-4,-4,-4,112,-106,-24,28.600000,47.299999,979.070007
16/06/2023,18:11:41.919,-2,23,992,-4,-4,-3,109,-108,-40,28.600000,47.299999,979.070007
16/06/2023,18:11:41.928,-1,24,992,-4,-4,-3,100,-100,-28,28.600000,47.299999,979.070007
16/06/2023,18:11:41.938,0,22,993,-4,-5,-3,111,-105,-22,28.600000,47.299999,979.070007
16/06/2023,18:11:41.946,-1,20,993,-5,-5,-4,111,-105,-22,28.600000,47.299999,979.070007
16/06/2023,18:11:41.956,-1,22,992,-5,-5,-4,114,-106,-22,28.600000,47.299999,979.070007
16/06/2023,18:11:41.966,0,24,992,-5,-5,-3,112,-91,-34,28.600000,47.299999,979.070007
16/06/2023,18:11:41.975,-1,23,991,-4,-4,-4,93,-100,-13,28.600000,47.299999,979.070007
16/06/2023,18:11:41.984,0,22,991,-4,-4,-4,120,-102,-7,28.600000,47.299999,979.070007
16/06/2023,18:11:41.994,1,21,991,-4,-1,-4,91,-97,9,28.600000,47.299999,979.070007
16/06/2023,18:11:42.003,1,23,990,-5,-3,-4,108,-99,-24,28.600000,47.299999,979.070007
16/06/2023,18:11:42.012,0,23,993,-4,-4,-4,85,-108,-30,28.600000,47.299999,979.070007
16/06/2023,18:11:42.022,1,23,994,-4,-4,-2,112,-99,-27,28.600000,47.299999,979.070007
16/06/2023,18:11:42.031,-1,23,993,-4,-4,-2,112,-105,-16,28.600000,47.299999,979.070007
16/06/2023,18:11:42.040,-2,22,992,-4,-4,-3,112,-105,-16,28.600000,47.299999,979.070007
16/06/2023,18:11:42.049,0,21,991,-5,-5,-4,106,-121,-21,28.600000,47.299999,979.070007
16/06/2023,18:11:42.059,0,22,992,-5,-3,-3,99,-108,-22,28.600000,47.299999,979.070007
16/06/2023,18:11:42.069,0,21,993,-5,-4,-3,90,-96,-39,28.600000,47.299999,979.070007
16/06/2023,18:11:42.078,-1,20,993,-5,-4,-4,111,-115,-18,28.600000,47.299999,979.070007
16/06/2023,18:11:42.087,0,22,991,-5,-4,-3,105,-112,-21,28.600000,47.299999,979.070007
16/06/2023,18:11:42.097,0,21,991,-5,-3,-4,111,-105,-19,28.600000,47.299999,979.070007
16/06/2023,18:11:42.106,0,21,993,-5,-4,-3,94,-100,-13,28.600000,47.299999,979.070007
16/06/2023,18:11:42.116,0,21,993,-5,-4,-2,93,-97,-36,28.600000,47.299999,979.070007
16/06/2023,18:11:42.125,-2,22,991,-4,-4,-2,99,-106,-7,28.600000,47.299999,979.070007
16/06/2023,18:11:42.134,-3,22,990,-3,-3,-3,99,-106,-7,28.600000,47.299999,979.070007
16/06/2023,18:11:42.143,0,21,991,-3,-3,-3,100,-108,-9,28.600000,47.299999,979.070007
16/06/2023,18:11:42.153,-1,21,991,-4,-4,-3,100,-106,-10,28.600000,47.299999,979.070007
16/06/2023,18:11:42.162,-3,21,992,-4,-3,-3,115,-96,-18,28.600000,47.299999,979.070007
16/06/2023,18:11:42.172,-2,23,992,-4,-3,-3,105,-96,-1,28.600000,47.299999,979.070007
16/06/2023,18:11:42.181,0,24,991,-4,-4,-3,103,-76,-18,28.600000,47.299999,979.070007
16/06/2023,18:11:42.190,0,22,992,-4,-4,-3,85,-87,-21,28.600000,47.299999,979.070007
16/06/2023,18:11:42.200,-2,20,992,-4,-2,-3,117,-91,-28,28.600000,47.299999,979.070007
16/06/2023,18:11:42.209,-2,21,993,-5,-3,-3,102,-99,-24,28.600000,47.299999,979.070007
16/06/2023,18:11:42.219,-1,21,992,-3,-3,-4,112,-96,-15,28.600000,47.299999,979.070007
16/06/2023,18:11:42.227,-1,21,992,-4,-2,-3,112,-96,-15,28.600000,47.299999,979.070007
16/06/2023,18:11:42.237,1,21,989,-4,-4,-3,109,-105,-21,28.600000,47.299999,979.070007
16/06/2023,18:11:42.247,0,20,989,-5,-5,-3,112,-115,-22,28.600000,47.299999,979.070007
16/06/2023,18:11:42.256,-1,21,992,-4,-4,-3,117,-99,-31,28.600000,47.299999,979.070007
16/06/2023,18:11:42.265,-1,21,992,-4,-4,-3,114,-72,-10,28.600000,47.299999,979.070007
16/06/2023,18:11:42.275,0,19,991,-4,-5,-4,106,-90,-24,28.600000,47.299999,979.070007
16/06/2023,18:11:42.284,0,21,991,-5,-5,-4,120,-94,-21,28.600000,47.299999,979.070007
16/06/2023,18:11:42.294,0,22,990,-5,-4,-4,111,-91,-28,28.600000,47.299999,979.070007
16/06/2023,18:11:42.303,1,23,993,-5,-4,-4,96,-100,-24,28.600000,47.299999,979.070007
16/06/2023,18:11:42.312,2,23,995,-5,-5,-4,111,-102,-31,28.600000,47.299999,979.070007
16/06/2023,18:11:42.321,1,22,991,-4,-4,-4,111,-102,-31,28.600000,47.299999,979.070007
16/06/2023,18:11:42.331,0,23,991,-5,-5,-3,109,-103,-13,28.600000,47.299999,979.070007
16/06/2023,18:11:42.340,0,22,992,-5,-5,-3,114,-103,-10,28.600000,47.299999,979.070007
16/06/2023,18:11:42.350,-1,22,991,-5,-4,-4,138,-105,-19,28.600000,47.299999,979.070007
16/06/2023,18:11:42.359,0,22,989,-4,-4,-3,109,-105,-19,28.600000,47.299999,979.070007
16/06/2023,18:11:42.368,1,20,990,-4,-5,-3,106,-85,-10,28.600000,47.299999,979.070007
16/06/2023,18:11:42.387,1,20,991,-5,-5,-3,114,-103,-16,28.600000,47.299999,979.070007
16/06/2023,18:11:42.397,0,24,995,-4,-4,-4,103,-103,-28,28.600000,47.299999,979.070007
16/06/2023,18:11:42.405,-1,24,993,-4,-5,-3,103,-103,-28,28.600000,47.299999,979.070007
16/06/2023,18:11:42.415,0,23,990,-5,-5,-4,108,-106,-24,28.600000,47.299999,979.070007
16/06/2023,18:11:42.425,0,22,990,-4,-5,-3,109,-100,-22,28.600000,47.299999,979.070007
16/06/2023,18:11:42.434,-2,22,991,-4,-4,-3,121,-99,-24,28.600000,47.299999,979.070007
16/06/2023,18:11:42.443,-2,23,991,-4,-5,-3,90,-109,-18,28.600000,47.299999,979.070007
16/06/2023,18:11:42.453,-1,23,991,-4,-4,-4,97,-90,-28,28.600000,47.299999,979.070007
16/06/2023,18:11:42.462,0,22,993,-4,-4,-3,109,-94,-25,28.600000,47.299999,979.070007
16/06/2023,18:11:42.472,-1,21,993,-4,-5,-3,108,-114,-34,28.600000,47.299999,979.070007
16/06/2023,18:11:42.481,0,22,991,-4,-4,-4,115,-96,-10,28.600000,47.299999,979.070007
16/06/2023,18:11:42.490,0,21,991,-3,-3,-3,117,-112,-18,28.600000,47.299999,979.070007
16/06/2023,18:11:42.499,-1,20,992,-4,-4,-3,117,-112,-18,28.600000,47.299999,979.070007
16/06/2023,18:11:42.508,-1,21,992,-5,-4,-3,99,-76,-25,28.600000,47.299999,979.070007
16/06/2023,18:11:42.518,0,22,992,-5,-4,-3,97,-97,-13,28.600000,47.299999,979.070007
16/06/2023,18:11:42.528,2,24,992,-5,-3,-2,115,-103,-16,28.600000,47.299999,979.070007
16/06/2023,18:11:42.537,0,26,993,-4,-4,-3,96,-118,-25,28.600000,47.299999,979.070007
16/06/2023,18:11:42.546,-1,23,992,-4,-4,-3,102,-96,-15,28.600000,47.299999,979.070007
16/06/2023,18:11:42.556,0,20,991,-4,-4,-3,100,-106,1,28.600000,47.299999,979.070007
16/06/2023,18:11:42.565,0,20,992,-5,-5,-3,96,-90,-28,28.600000,47.299999,979.070007
16/06/2023,18:11:42.575,0,19,991,-4,-4,-3,102,-103,-22,28.600000,47.299999,979.070007
16/06/2023,18:11:42.584,-1,19,993,-4,-4,-4,111,-111,-15,28.600000,47.299999,979.070007
16/06/2023,18:11:42.593,-1,19,993,-4,-4,-4,111,-111,-15,28.600000,47.299999,979.070007
16/06/2023,18:11:42.602,0,23,993,-4,-5,-3,94,-108,-21,28.600000,47.299999,979.070007
16/06/2023,18:11:42.612,0,21,991,-5,-3,-4,114,-109,-27,28.600000,47.299999,979.070007
16/06/2023,18:11:42.621,-1,21,990,-5,-4,-4,94,-94,-22,28.600000,47.299999,979.070007
16/06/2023,18:11:42.631,0,22,990,-5,-5,-4,114,-96,-19,28.600000,47.299999,979.070007
16/06/2023,18:11:42.640,2,21,990,-5,-4,-4,117,-93,-27,28.600000,47.299999,979.070007
16/06/2023,18:11:42.650,0,22,992,-5,-4,-3,111,-97,-12,28.600000,47.299999,979.070007
16/06/2023,18:11:42.659,-1,23,992,-5,-3,-3,99,-93,-15,28.600000,47.299999,979.070007
16/06/2023,18:11:42.668,0,24,992,-4,-4,-4,103,-118,-16,28.600000,47.299999,979.070007
16/06/2023,18:11:42.678,0,23,991,-4,-4,-3,97,-99,-22,28.600000,47.299999,979.070007
16/06/2023,18:11:42.686,-4,21,991,-5,-4,-4,97,-99,-22,28.600000,47.299999,979.070007
16/06/2023,18:11:42.696,-2,21,991,-4,-5,-3,100,-79,-22,28.600000,47.299999,979.070007
16/06/2023,18:11:42.706,0,21,991,-4,-4,-3,97,-102,-3,28.600000,47.299999,979.070007
16/06/2023,18:11:42.715,-1,21,991,-5,-4,-4,97,-100,-22,28.600000,47.299999,979.070007
16/06/2023,18:11:42.725,-2,22,992,-4,-3,-4,94,-99,-21,28.600000,47.299999,979.070007
16/06/2023,18:11:42.734,-2,23,992,-4,-4,-3,103,-103,-12,28.600000,47.299999,979.070007
16/06/2023,18:11:42.743,-3,23,992,-4,-4,-4,111,-105,-15,28.600000,47.299999,979.070007
16/06/2023,18:11:42.753,-2,24,991,-4,-4,-4,106,-100,-45,28.600000,47.299999,979.070007
16/06/2023,18:11:42.762,-1,21,989,-4,-4,-3,120,-88,-24,28.600000,47.299999,979.070007
16/06/2023,18:11:42.771,0,20,991,-4,-5,-4,99,-96,-13,28.600000,47.299999,979.070007
16/06/2023,18:11:42.780,-2,22,993,-4,-4,-4,99,-96,-13,28.600000,47.299999,979.070007
16/06/2023,18:11:42.789,-1,22,993,-4,-4,-4,94,-93,-3,28.600000,47.299999,979.070007
16/06/2023,18:11:42.799,0,21,992,-5,-5,-4,105,-105,-25,28.600000,47.299999,979.070007
16/06/2023,18:11:42.809,0,20,993,-5,-5,-4,105,-94,-34,28.600000,47.299999,979.070007
16/06/2023,18:11:42.818,-1,24,991,-4,-4,-4,105,-90,-34,28.600000,47.299999,979.070007
16/06/2023,18:11:42.828,-2,25,992,-4,-5,-4,100,-81,-22,28.600000,47.299999,979.070007
16/06/2023,18:11:42.837,-1,23,993,-4,-6,-4,109,-108,-13,28.600000,47.299999,979.070007
16/06/2023,18:11:42.846,-1,21,992,-4,-4,-4,105,-99,-16,28.600000,47.299999,979.070007
16/06/2023,18:11:42.856,-1,23,993,-4,-4,-4,105,-103,-19,28.600000,47.299999,979.070007
16/06/2023,18:11:42.865,-1,24,992,-5,-2,-4,103,-106,-15,28.600000,47.299999,979.070007
16/06/2023,18:11:42.874,-1,21,993,-4,-4,-4,103,-106,-15,28.600000,47.299999,979.070007
16/06/2023,18:11:42.883,-2,20,992,-3,-3,-3,103,-114,-33,28.600000,47.299999,979.070007
16/06/2023,18:11:42.893,-1,19,990,-4,-4,-3,93,-90,-15,28.600000,47.299999,979.070007
16/06/2023,18:11:42.903,-1,17,989,-4,-5,-3,100,-97,-22,28.600000,47.299999,979.070007
16/06/2023,18:11:42.912,-2,17,991,-5,-4,-3,105,-93,-16,28.600000,47.400002,979.039978
16/06/2023,18:11:42.921,0,18,991,-4,-4,-3,100,-105,-13,28.600000,47.400002,979.039978
16/06/2023,18:11:42.931,-1,19,991,-5,-3,-3,90,-99,-24,28.600000,47.400002,979.039978
16/06/2023,18:11:42.943,-1,19,991,-4,-4,-3,75,-100,-31,28.600000,47.400002,979.039978
16/06/2023,18:11:42.949,-2,21,993,-5,-5,-4,114,-97,-16,28.600000,47.400002,979.039978
16/06/2023,18:11:42.958,0,20,993,-4,-4,-4,114,-97,-16,28.600000,47.400002,979.039978
16/06/2023,18:11:42.967,-2,22,993,-4,-4,-3,109,-106,-12,28.600000,47.400002,979.039978
16/06/2023,18:11:42.977,-3,24,992,-5,-3,-3,93,-84,-22,28.600000,47.400002,979.039978
16/06/2023,18:11:42.987,0,23,992,-5,-3,-4,90,-105,-7,28.600000,47.400002,979.039978
16/06/2023,18:11:42.999,0,23,992,-4,-4,-3,106,-97,-13,28.600000,47.400002,979.039978
16/06/2023,18:11:43.006,-1,22,991,-5,-4,-3,108,-121,-25,28.600000,47.400002,979.039978
16/06/2023,18:11:43.015,-4,20,992,-5,-4,-4,96,-99,-10,28.600000,47.400002,979.039978
16/06/2023,18:11:43.024,-2,21,994,-4,-3,-3,103,-111,-13,28.600000,47.400002,979.039978
16/06/2023,18:11:43.034,0,22,993,-4,-3,-4,100,-97,-13,28.600000,47.400002,979.039978
16/06/2023,18:11:43.043,0,21,993,-4,-4,-4,99,-99,-21,28.600000,47.400002,979.039978
16/06/2023,18:11:43.061,-1,20,990,-5,-4,-4,106,-99,-9,28.600000,47.400002,979.039978
16/06/2023,18:11:43.071,0,19,992,-5,-6,-4,100,-93,-15,28.600000,47.400002,979.039978
16/06/2023,18:11:43.081,0,19,992,-5,-6,-4,111,-93,-28,28.600000,47.400002,979.039978
16/06/2023,18:11:43.090,-1,19,990,-4,-5,-4,106,-102,-21,28.600000,47.400002,979.039978
16/06/2023,18:11:43.099,-1,21,992,-4,-5,-3,114,-103,-30,28.600000,47.400002,979.039978
16/06/2023,18:11:43.109,0,24,994,-4,-4,-3,112,-82,-7,28.600000,47.400002,979.039978
16/06/2023,18:11:43.118,-1,23,993,-4,-3,-2,112,-106,3,28.600000,47.400002,979.039978
16/06/2023,18:11:43.127,-2,21,992,-4,-4,-2,106,-115,-24,28.600000,47.400002,979.039978
16/06/2023,18:11:43.137,-2,23,991,-4,-4,-3,103,-106,-31,28.600000,47.400002,979.039978
16/06/2023,18:11:43.145,-2,23,991,-5,-4,-4,103,-106,-31,28.600000,47.400002,979.039978
16/06/2023,18:11:43.155,-1,23,991,-5,-3,-4,93,-93,-33,28.600000,47.400002,979.039978
16/06/2023,18:11:43.165,0,25,992,-6,-3,-4,109,-109,-27,28.600000,47.400002,979.039978
16/06/2023,18:11:43.174,0,23,992,-5,-4,-4,102,-82,-6,28.600000,47.400002,979.039978
16/06/2023,18:11:43.184,0,20,991,-5,-5,-4,102,-82,-6,28.600000,47.400002,979.039978
16/06/2023,18:11:43.193,1,19,990,-5,-5,-2,102,-102,-39,28.600000,47.400002,979.039978
16/06/2023,18:11:43.202,-1,19,990,-5,-6,-4,97,-120,-30,28.600000,47.400002,979.039978
16/06/2023,18:11:43.212,-3,20,991,-5,-6,-4,99,-96,-15,28.600000,47.400002,979.039978
16/06/2023,18:11:43.221,-2,21,994,-5,-4,-4,103,-118,-30,28.600000,47.400002,979.039978
16/06/2023,18:11:43.230,-2,20,993,-5,-3,-4,111,-102,-28,28.600000,47.400002,979.039978
16/06/2023,18:11:43.239,-1,21,991,-4,-4,-4,111,-102,-28,28.600000,47.400002,979.039978
16/06/2023,18:11:43.249,-1,22,990,-4,-3,-4,117,-108,-28,28.600000,47.400002,979.039978
16/06/2023,18:11:43.259,-1,20,991,-4,-2,-4,100,-93,-40,28.600000,47.400002,979.039978
16/06/2023,18:11:43.268,0,20,990,-5,-4,-4,102,-96,-39,28.600000,47.400002,979.039978
16/06/2023,18:11:43.277,-1,21,990,-4,-5,-3,102,-102,-19,28.600000,47.400002,979.039978
16/06/2023,18:11:43.287,-1,21,990,-4,-4,-4,97,-109,-24,28.600000,47.400002,979.039978
16/06/2023,18:11:43.296,-1,22,991,-5,-5,-4,114,-97,-30,28.600000,47.400002,979.039978
16/06/2023,18:11:43.305,0,21,992,-4,-5,-4,93,-108,-25,28.600000,47.400002,979.039978
16/06/2023,18:11:43.315,0,22,993,-5,-5,-4,82,-102,-30,28.600000,47.400002,979.039978
16/06/2023,18:11:43.324,0,23,994,-4,-5,-4,108,-90,-21,28.600000,47.400002,979.039978
16/06/2023,18:11:43.333,-1,22,993,-5,-4,-3,108,-90,-21,28.600000,47.400002,979.039978
16/06/2023,18:11:43.343,-2,22,992,-4,-4,-4,90,-99,-9,28.600000,47.400002,979.039978
16/06/2023,18:11:43.352,-3,23,993,-4,-5,-3,90,-99,-9,28.600000,47.400002,979.039978
16/06/2023,18:11:43.362,-2,22,993,-4,-5,-4,100,-115,-34,28.600000,47.400002,979.039978
16/06/2023,18:11:43.371,0,21,991,-5,-4,-4,106,-96,-27,28.600000,47.400002,979.039978
16/06/2023,18:11:43.380,0,23,991,-5,-3,-3,108,-106,-31,28.600000,47.400002,979.039978
16/06/2023,18:11:43.390,-2,24,991,-5,-4,-3,97,-106,-31,28.600000,47.400002,979.039978
16/06/2023,18:11:43.399,-2,22,991,-5,0,-4,96,-97,-21,28.600000,47.400002,979.039978
16/06/2023,18:11:43.408,0,19,991,-4,-3,-3,114,-126,-40,28.600000,47.400002,979.039978
16/06/2023,18:11:43.417,-1,20,991,-4,-4,-2,114,-126,-40,28.600000,47.400002,979.039978
16/06/2023,18:11:43.427,-1,22,990,-5,-4,-4,93,-115,-27,28.600000,47.400002,979.039978
16/06/2023,18:11:43.437,-2,21,991,-5,-4,-3,81,-121,-39,28.600000,47.400002,979.039978
16/06/2023,18:11:43.446,-3,20,992,-5,-3,-4,99,-108,-28,28.600000,47.400002,979.039978
16/06/2023,18:11:43.455,-1,21,992,-5,-2,-3,90,-105,-21,28.600000,47.400002,979.039978
16/06/2023,18:11:43.465,0,22,993,-5,-2,-3,87,-112,-25,28.600000,47.400002,979.039978
16/06/2023,18:11:43.474,0,23,993,-5,-4,-3,109,-108,-40,28.600000,47.400002,979.039978
16/06/2023,18:11:43.483,1,22,992,-4,-4,-3,90,-114,-33,28.600000,47.400002,979.039978
16/06/2023,18:11:43.493,1,20,992,-4,-3,-3,94,-115,-22,28.600000,47.400002,979.039978
16/06/2023,18:11:43.502,0,20,991,-4,-4,-3,94,-103,-33,28.600000,47.400002,979.039978
16/06/2023,18:11:43.511,-2,24,990,-4,-4,-4,94,-103,-33,28.600000,47.400002,979.039978
16/06/2023,18:11:43.520,-2,23,990,-5,-3,-3,81,-88,-15,28.600000,47.400002,979.039978
16/06/2023,18:11:43.530,-1,19,995,-5,-2,-3,108,-127,-40,28.600000,47.400002,979.039978
16/06/2023,18:11:43.540,-2,20,996,-5,-3,-3,100,-93,-39,28.600000,47.400002,979.039978
16/06/2023,18:11:43.549,0,21,992,-5,-3,-3,90,-102,-51,28.600000,47.400002,979.039978
16/06/2023,18:11:43.561,1,22,991,-5,-3,-3,97,-115,-43,28.600000,47.400002,979.039978
16/06/2023,18:11:43.568,0,23,994,-5,-4,-4,90,-118,-33,28.600000,47.400002,979.039978
16/06/2023,18:11:43.577,0,23,993,-5,-4,-3,97,-114,-39,28.600000,47.400002,979.039978
16/06/2023,18:11:43.586,0,22,991,-5,-4,-4,105,-118,-43,28.600000,47.400002,979.039978
16/06/2023,18:11:43.596,-1,22,990,-5,-5,-4,90,-108,-31,28.600000,47.400002,979.039978
16/06/2023,18:11:43.605,-1,22,990,-4,-6,-4,90,-108,-31,28.600000,47.400002,979.039978
16/06/2023,18:11:43.615,0,20,992,-4,-4,-4,96,-102,-34,28.600000,47.400002,979.039978
16/06/2023,18:11:43.624,0,22,994,-4,-4,-3,93,-99,-31,28.600000,47.400002,979.039978
16/06/2023,18:11:43.633,0,22,994,-4,-4,-4,91,-109,-42,28.600000,47.400002,979.039978
16/06/2023,18:11:43.643,-3,22,993,-4,-4,-5,87,-123,-49,28.600000,47.400002,979.039978
16/06/2023,18:11:43.651,-4,20,991,-5,-4,-4,96,-106,-33,28.600000,47.400002,979.039978
16/06/2023,18:11:43.661,-1,20,991,-4,-4,-4,94,-129,-51,28.600000,47.400002,979.039978
16/06/2023,18:11:43.671,-1,20,992,-4,-5,-4,87,-133,-49,28.600000,47.400002,979.039978
16/06/2023,18:11:43.680,-2,21,991,-5,-5,-3,91,-109,-46,28.600000,47.400002,979.039978
16/06/2023,18:11:43.689,-1,23,991,-4,-5,-4,91,-109,-46,28.600000,47.400002,979.039978
16/06/2023,18:11:43.698,0,21,991,-5,-6,-4,87,-115,-43,28.600000,47.400002,979.039978
16/06/2023,18:11:43.708,0,21,991,-4,-5,-3,88,-100,-48,28.600000,47.400002,979.039978
16/06/2023,18:11:43.718,0,22,990,-4,-5,-3,94,-120,-42,28.600000,47.400002,979.039978
16/06/2023,18:11:43.736,0,22,994,-5,-4,-2,84,-109,-37,28.600000,47.400002,979.039978
16/06/2023,18:11:43.746,-1,23,992,-5,-4,-3,90,-124,-54,28.600000,47.400002,979.039978
16/06/2023,18:11:43.755,-2,20,990,-5,-4,-4,100,-97,-58,28.600000,47.400002,979.039978
16/06/2023,18:11:43.764,-3,22,992,-4,-4,-3,91,-117,-36,28.600000,47.400002,979.039978
16/06/2023,18:11:43.774,1,22,993,-5,-4,-3,78,-123,-42,28.600000,47.400002,979.039978
16/06/2023,18:11:43.783,1,22,991,-4,-5,-2,78,-123,-42,28.600000,47.400002,979.039978
16/06/2023,18:11:43.793,-1,20,991,-5,-6,-4,88,-124,-39,28.600000,47.400002,979.039978
16/06/2023,18:11:43.802,0,21,993,-5,-5,-4,97,-109,-51,28.600000,47.400002,979.039978
16/06/2023,18:11:43.811,0,23,991,-4,-5,-4,105,-111,-34,28.600000,47.400002,979.039978
16/06/2023,18:11:43.821,-3,22,991,-5,-4,-2,102,-124,-60,28.600000,47.400002,979.039978
16/06/2023,18:11:43.830,-4,21,994,-5,-4,-3,94,-100,-37,28.600000,47.400002,979.039978
16/06/2023,18:11:43.839,-5,22,994,-4,-5,-3,103,-105,-60,28.600000,47.400002,979.039978
16/06/2023,18:11:43.849,-2,21,992,-4,-4,-4,85,-117,-51,28.600000,47.400002,979.039978
16/06/2023,18:11:43.858,0,20,991,-5,-4,-4,85,-96,-55,28.600000,47.400002,979.039978
16/06/2023,18:11:43.867,-2,20,994,-6,-4,-4,85,-96,-55,28.600000,47.400002,979.039978
16/06/2023,18:11:43.876,-3,18,993,-5,-4,-4,94,-109,-46,28.600000,47.400002,979.039978
16/06/2023,18:11:43.886,-1,20,991,-4,-5,-4,97,-111,-52,28.600000,47.400002,979.039978
16/06/2023,18:11:43.896,0,21,991,-4,-5,-4,81,-108,-63,28.600000,47.400002,979.039978
16/06/2023,18:11:43.905,1,21,993,-4,-5,-3,91,-105,-45,28.600000,47.400002,979.039978
16/06/2023,18:11:43.914,1,21,992,-4,-4,-4,84,-126,-57,28.600000,47.400002,979.039978
16/06/2023,18:11:43.924,0,21,991,-4,-4,-3,85,-103,-72,28.600000,47.400002,979.039978
16/06/2023,18:11:43.933,0,23,992,-5,-4,-3,87,-115,-52,28.600000,47.400002,979.039978
16/06/2023,18:11:43.942,0,23,992,-5,-5,-4,99,-105,-60,28.600000,47.400002,979.039978
16/06/2023,18:11:43.953,-2,24,990,-4,-3,-4,99,-105,-60,28.600000,47.700001,979.039978
16/06/2023,18:11:43.961,-2,24,990,-4,-4,-3,67,-96,-42,28.600000,47.700001,979.030029
16/06/2023,18:11:43.970,-3,22,991,-4,-5,-3,67,-96,-42,28.600000,47.700001,979.030029
16/06/2023,18:11:43.980,0,20,993,-6,-4,-4,93,-124,-69,28.600000,47.700001,979.030029
16/06/2023,18:11:43.989,2,19,991,-5,-2,-4,87,-109,-52,28.600000,47.700001,979.030029
16/06/2023,18:11:43.999,-1,20,988,-4,-4,-3,90,-108,-60,28.600000,47.700001,979.030029
16/06/2023,18:11:44.008,-1,21,991,-5,-5,-3,105,-111,-67,28.600000,47.700001,979.030029
16/06/2023,18:11:44.017,0,22,993,-5,-4,-3,85,-114,-63,28.600000,47.700001,979.030029
16/06/2023,18:11:44.027,0,21,990,-5,-4,-4,75,-129,-48,28.600000,47.700001,979.030029
16/06/2023,18:11:44.036,-1,21,989,-4,-5,-3,93,-121,-48,28.600000,47.700001,979.030029
16/06/2023,18:11:44.046,-2,22,995,-4,-5,-3,94,-115,-61,28.600000,47.700001,979.030029
16/06/2023,18:11:44.054,-2,23,993,-4,-5,-4,94,-115,-61,28.600000,47.700001,979.030029
16/06/2023,18:11:44.064,0,23,991,-4,-3,-4,108,-106,-73,28.600000,47.700001,979.030029
16/06/2023,18:11:44.074,1,22,993,-5,-2,-4,94,-108,-42,28.600000,47.700001,979.030029
16/06/2023,18:11:44.083,-1,21,994,-5,-2,-3,94,-127,-75,28.600000,47.700001,979.030029
16/06/2023,18:11:44.092,-3,22,991,-5,-3,-3,81,-127,-63,28.600000,47.700001,979.030029
16/06/2023,18:11:44.102,0,21,990,-5,-3,-3,85,-112,-61,28.600000,47.700001,979.030029
16/06/2023,18:11:44.111,2,21,993,-4,-3,-2,99,-124,-52,28.600000,47.700001,979.030029
16/06/2023,18:11:44.120,0,23,993,-4,-5,-4,81,-111,-52,28.600000,47.700001,979.030029
16/06/2023,18:11:44.130,-2,21,990,-3,-6,-4,88,-100,-39,28.600000,47.700001,979.030029
16/06/2023,18:11:44.139,0,22,992,-4,-6,-3,103,-118,-61,28.600000,47.700001,979.030029
16/06/2023,18:11:44.148,0,20,995,-4,-5,-2,103,-118,-61,28.600000,47.700001,979.030029
16/06/2023,18:11:44.157,-1,20,990,-4,-4,-3,99,-124,-70,28.600000,47.700001,979.030029
16/06/2023,18:11:44.167,-1,20,988,-4,-5,-3,90,-127,-69,28.600000,47.700001,979.030029
16/06/2023,18:11:44.177,0,20,993,-4,-3,-4,96,-120,-67,28.600000,47.700001,979.030029
16/06/2023,18:11:44.186,0,19,993,-4,-4,-3,93,-126,-75,28.600000,47.700001,979.030029
16/06/2023,18:11:44.195,0,20,988,-4,-3,-3,105,-117,-55,28.600000,47.700001,979.030029
16/06/2023,18:11:44.205,0,22,989,-4,-2,-3,96,-124,-76,28.600000,47.700001,979.030029
16/06/2023,18:11:44.214,0,22,995,-5,-3,-3,82,-111,-91,28.600000,47.700001,979.030029
16/06/2023,18:11:44.224,-1,20,993,-5,-3,-3,90,-114,-49,28.600000,47.700001,979.030029
16/06/2023,18:11:44.236,-2,21,986,-3,-3,-4,76,-126,-61,28.600000,47.700001,979.030029
16/06/2023,18:11:44.242,0,24,990,-3,-3,-4,76,-126,-61,28.600000,47.700001,979.030029
16/06/2023,18:11:44.251,2,25,993,-3,-4,-4,82,-112,-67,28.600000,47.700001,979.030029
16/06/2023,18:11:44.261,1,21,991,-4,-4,-4,81,-118,-51,28.600000,47.700001,979.030029
16/06/2023,18:11:44.270,0,21,993,-5,-3,-4,94,-96,-73,28.600000,47.700001,979.030029
16/06/2023,18:11:44.280,0,22,994,-4,-3,-3,81,-114,-58,28.600000,47.700001,979.030029
16/06/2023,18:11:44.292,-1,20,990,-4,-2,-2,81,-108,-70,28.600000,47.700001,979.030029
16/06/2023,18:11:44.298,-4,21,991,-4,-2,-4,97,-117,-52,28.600000,47.700001,979.030029
16/06/2023,18:11:44.308,-4,21,994,-5,-2,-4,87,-117,-67,28.600000,47.700001,979.030029
16/06/2023,18:11:44.317,-4,21,994,-5,-2,-3,81,-115,-64,28.600000,47.700001,979.030029
16/06/2023,18:11:44.327,0,19,994,-5,-3,-3,87,-133,-60,28.600000,47.700001,979.030029
16/06/2023,18:11:44.335,0,19,992,-4,-5,-3,87,-133,-60,28.600000,47.700001,979.030029
16/06/2023,18:11:44.345,-1,21,990,-4,-5,-3,76,-130,-69,28.600000,47.700001,979.030029
16/06/2023,18:11:44.355,1,24,994,-4,-5,-3,108,-130,-69,28.600000,47.700001,979.030029
16/06/2023,18:11:44.364,1,23,992,-4,-4,-4,88,-121,-61,28.600000,47.700001,979.030029
16/06/2023,18:11:44.373,0,19,987,-4,-5,-3,96,-115,-73,28.600000,47.700001,979.030029
16/06/2023,18:11:44.383,1,20,989,-5,-5,-2,90,-114,-72,28.600000,47.700001,979.030029
16/06/2023,18:11:44.392,0,24,993,-6,-5,-3,90,-117,-81,28.600000,47.700001,979.030029
16/06/2023,18:11:44.411,-1,19,990,-4,-3,-3,96,-115,-49,28.600000,47.700001,979.030029
16/06/2023,18:11:44.420,0,22,992,-5,-3,-3,96,-115,-49,28.600000,47.700001,979.030029
16/06/2023,18:11:44.429,-2,23,992,-4,-5,-4,87,-132,-73,28.600000,47.700001,979.030029
16/06/2023,18:11:44.439,0,22,992,-4,-4,-4,88,-118,-70,28.600000,47.700001,979.030029
16/06/2023,18:11:44.448,0,20,991,-5,-4,-4,96,-120,-67,28.600000,47.700001,979.030029
16/06/2023,18:11:44.458,-2,21,991,-5,-4,-3,93,-106,-84,28.600000,47.700001,979.030029
16/06/2023,18:11:44.467,-3,20,992,-4,-4,-4,78,-121,-55,28.600000,47.700001,979.030029
16/06/2023,18:11:44.476,-3,21,990,-4,-4,-4,108,-117,-75,28.600000,47.700001,979.030029
16/06/2023,18:11:44.485,-1,23,994,-3,-3,-4,88,-123,-72,28.600000,47.700001,979.030029
16/06/2023,18:11:44.495,0,21,995,-4,-4,-3,90,-118,-61,28.600000,47.700001,979.030029
16/06/2023,18:11:44.505,-2,20,992,-5,-3,-4,105,-133,-66,28.600000,47.700001,979.030029
16/06/2023,18:11:44.513,-4,24,992,-5,-3,-4,105,-133,-66,28.600000,47.700001,979.030029
16/06/2023,18:11:44.523,0,26,994,-5,-3,-3,93,-111,-75,28.600000,47.700001,979.030029
16/06/2023,18:11:44.533,-1,25,994,-4,-3,-4,99,-126,-79,28.600000,47.700001,979.030029
16/06/2023,18:11:44.542,-5,24,992,-4,-2,-4,94,-123,-66,28.600000,47.700001,979.030029
16/06/2023,18:11:44.551,-2,23,991,-3,-4,-3,96,-108,-70,28.600000,47.700001,979.030029
16/06/2023,18:11:44.561,2,24,993,-4,-5,-3,93,-127,-61,28.600000,47.700001,979.030029
16/06/2023,18:11:44.570,3,23,991,-4,-3,-3,105,-121,-61,28.600000,47.700001,979.030029
16/06/2023,18:11:44.580,1,22,989,-4,-3,-3,76,-124,-61,28.600000,47.700001,979.030029
16/06/2023,18:11:44.589,0,23,992,-5,-4,-3,84,-123,-84,28.600000,47.700001,979.030029
16/06/2023,18:11:44.598,-1,24,993,-4,-5,-4,84,-123,-84,28.600000,47.700001,979.030029
16/06/2023,18:11:44.607,-2,20,995,-4,-4,-3,87,-112,-64,28.600000,47.700001,979.030029
16/06/2023,18:11:44.617,0,21,993,-4,-4,-4,82,-118,-67,28.600000,47.700001,979.030029
16/06/2023,18:11:44.626,1,23,991,-5,-3,-4,90,-126,-76,28.600000,47.700001,979.030029
16/06/2023,18:11:44.636,-1,23,992,-4,-4,-3,88,-114,-66,28.600000,47.700001,979.030029
16/06/2023,18:11:44.645,0,24,991,-4,-4,-3,76,-118,-91,28.600000,47.700001,979.030029
16/06/2023,18:11:44.654,0,23,990,-4,-4,-3,94,-127,-76,28.600000,47.700001,979.030029
16/06/2023,18:11:44.664,0,23,990,-3,-4,-3,79,-132,-78,28.600000,47.700001,979.030029
16/06/2023,18:11:44.673,0,22,990,-4,-4,-4,90,-127,-84,28.600000,47.700001,979.030029
16/06/2023,18:11:44.683,-1,21,992,-5,-5,-3,88,-129,-75,28.600000,47.700001,979.030029
16/06/2023,18:11:44.691,-1,19,993,-5,-3,-4,88,-129,-75,28.600000,47.700001,979.030029
16/06/2023,18:11:44.701,0,19,993,-5,-4,-4,84,-112,-61,28.600000,47.700001,979.030029
16/06/2023,18:11:44.711,0,21,991,-4,-4,-3,91,-123,-75,28.600000,47.700001,979.030029
16/06/2023,18:11:44.720,0,21,991,-4,-5,-2,94,-127,-78,28.600000,47.700001,979.030029
16/06/2023,18:11:44.729,0,19,992,-4,-5,-3,93,-129,-82,28.600000,47.700001,979.030029
16/06/2023,18:11:44.739,-2,20,991,-4,-5,-3,97,-121,-78,28.600000,47.700001,979.030029
16/06/2023,18:11:44.748,-2,21,991,-5,-3,-4,88,-109,-88,28.600000,47.700001,979.030029
16/06/2023,18:11:44.758,-2,22,993,-4,-4,-3,99,-114,-84,28.600000,47.700001,979.030029
16/06/2023,18:11:44.767,0,21,991,-4,-5,-2,94,-132,-78,28.600000,47.700001,979.030029
16/06/2023,18:11:44.776,0,20,990,-5,-4,-4,88,-114,-81,28.600000,47.700001,979.030029
16/06/2023,18:11:44.785,0,21,990,-5,-4,-4,88,-114,-81,28.600000,47.700001,979.030029
16/06/2023,18:11:44.794,1,23,990,-4,-4,-3,91,-129,-66,28.600000,47.700001,979.030029
16/06/2023,18:11:44.804,0,23,989,-4,-2,-3,85,-117,-60,28.600000,47.700001,979.030029
16/06/2023,18:11:44.814,-1,23,989,-4,-3,-4,93,-121,-85,28.600000,47.700001,979.030029
16/06/2023,18:11:44.823,-1,23,990,-4,-4,-4,99,-129,-75,28.600000,47.700001,979.030029
16/06/2023,18:11:44.833,0,22,991,-5,-5,-3,90,-118,-76,28.600000,47.700001,979.030029
16/06/2023,18:11:44.842,-2,23,992,-4,-6,-3,90,-126,-88,28.600000,47.700001,979.030029
16/06/2023,18:11:44.851,-3,21,994,-5,-4,-4,82,-115,-81,28.600000,47.700001,979.030029
16/06/2023,18:11:44.861,-2,22,993,-5,-4,-3,79,-111,-64,28.600000,47.700001,979.030029
16/06/2023,18:11:44.869,-2,23,990,-5,-4,-3,79,-111,-64,28.600000,47.700001,979.030029
16/06/2023,18:11:44.879,-1,21,991,-5,-4,-3,103,-111,-75,28.600000,47.700001,979.030029
16/06/2023,18:11:44.889,0,22,992,-4,-4,-3,84,-112,-67,28.600000,47.700001,979.030029
16/06/2023,18:11:44.898,-1,23,992,-5,-5,-4,87,-126,-76,28.600000,47.700001,979.030029
16/06/2023,18:11:44.911,-2,20,989,-5,-4,-4,100,-121,-78,28.600000,47.700001,979.030029
16/06/2023,18:11:44.917,-2,20,990,-5,-5,-4,100,-121,-72,28.600000,47.700001,979.030029
16/06/2023,18:11:44.926,-2,24,992,-5,-4,-3,91,-112,-69,28.600000,47.700001,979.030029
16/06/2023,18:11:44.936,0,22,991,-5,-4,-3,90,-124,-78,28.600000,47.700001,979.030029
16/06/2023,18:11:44.945,-1,20,993,-5,-4,-4,103,-109,-84,28.600000,47.700001,979.030029
16/06/2023,18:11:44.954,-1,20,994,-4,-4,-3,79,-115,-90,28.600000,47.700001,979.030029
16/06/2023,18:11:44.963,0,20,992,-5,-5,-3,79,-115,-90,28.600000,47.700001,979.030029
16/06/2023,18:11:44.972,-2,21,989,-4,-4,-3,96,-139,-84,28.600000,47.700001,979.030029
16/06/2023,18:11:44.982,-3,21,990,-5,-6,-3,81,-112,-70,28.600000,47.700001,979.030029
16/06/2023,18:11:44.992,0,21,993,-5,-5,-3,90,-114,-90,28.600000,47.700001,979.030029
16/06/2023,18:11:45.001,1,21,993,-4,-4,-3,91,-120,-73,28.600000,47.500000,979.020020
16/06/2023,18:11:45.011,1,21,993,-5,-4,-4,73,-114,-87,28.600000,47.500000,979.020020
16/06/2023,18:11:45.020,1,19,992,-5,-4,-4,103,-117,-58,28.600000,47.500000,979.020020
16/06/2023,18:11:45.029,0,21,992,-5,-4,-2,93,-109,-70,28.600000,47.500000,979.020020
16/06/2023,18:11:45.039,-4,23,993,-4,-4,-3,105,-120,-78,28.600000,47.500000,979.020020
16/06/2023,18:11:45.047,-3,22,991,-4,-4,-4,105,-120,-78,28.600000,47.500000,979.020020
16/06/2023,18:11:45.057,-3,20,989,-4,-4,-4,103,-126,-91,28.600000,47.500000,979.020020
16/06/2023,18:11:45.067,-2,21,992,-5,-4,-4,97,-150,-82,28.600000,47.500000,979.020020
16/06/2023,18:11:45.085,0,18,993,-4,-2,-3,91,-120,-75,28.600000,47.500000,979.020020
16/06/2023,18:11:45.095,1,22,992,-5,-2,-4,96,-132,-84,28.600000,47.500000,979.020020
16/06/2023,18:11:45.104,0,21,993,-5,-4,-3,99,-126,-73,28.600000,47.500000,979.020020
16/06/2023,18:11:45.113,-2,20,991,-5,-5,-3,108,-126,-81,28.600000,47.500000,979.020020
16/06/2023,18:11:45.123,-3,21,990,-5,-4,-3,102,-112,-78,28.600000,47.500000,979.020020
16/06/2023,18:11:45.132,-2,21,993,-5,-5,-2,100,-129,-85,28.600000,47.500000,979.020020
16/06/2023,18:11:45.141,-1,23,991,-5,-7,-3,100,-129,-85,28.600000,47.500000,979.020020
16/06/2023,18:11:45.150,-2,23,991,-4,-5,-4,90,-132,-79,28.600000,47.500000,979.020020
16/06/2023,18:11:45.160,-2,22,990,-4,-4,-3,82,-121,-79,28.600000,47.500000,979.020020
16/06/2023,18:11:45.170,-1,23,993,-5,-5,-3,90,-126,-67,28.600000,47.500000,979.020020
16/06/2023,18:11:45.179,-1,23,993,-4,-3,-4,84,-114,-75,28.600000,47.500000,979.020020
16/06/2023,18:11:45.189,0,23,990,-5,-3,-4,99,-138,-84,28.600000,47.500000,979.020020
16/06/2023,18:11:45.198,0,22,991,-4,-4,-3,91,-123,-90,28.600000,47.500000,979.020020
16/06/2023,18:11:45.207,0,23,993,-5,-4,-3,97,-133,-73,28.600000,47.500000,979.020020
16/06/2023,18:11:45.217,0,24,992,-5,-3,-3,82,-123,-84,28.600000,47.500000,979.020020
16/06/2023,18:11:45.226,0,20,992,-4,-3,-4,99,-124,-87,28.600000,47.500000,979.020020
16/06/2023,18:11:45.235,-1,20,993,-4,-4,-4,99,-124,-87,28.600000,47.500000,979.020020
16/06/2023,18:11:45.244,-1,21,993,-5,-6,-4,84,-118,-76,28.600000,47.500000,979.020020
16/06/2023,18:11:45.254,-1,22,992,-5,-5,-4,81,-121,-66,28.600000,47.500000,979.020020
16/06/2023,18:11:45.263,-1,22,993,-4,-4,-3,81,-121,-66,28.600000,47.500000,979.020020
16/06/2023,18:11:45.273,-1,23,993,-4,-5,-3,81,-115,-70,28.600000,47.500000,979.020020
16/06/2023,18:11:45.282,-2,22,990,-4,-5,-3,81,-130,-63,28.600000,47.500000,979.020020
16/06/2023,18:11:45.292,-1,20,990,-4,-5,-2,106,-120,-78,28.600000,47.500000,979.020020
16/06/2023,18:11:45.301,0,22,991,-4,-5,-3,105,-135,-90,28.600000,47.500000,979.020020
16/06/2023,18:11:45.310,-2,24,990,-4,-4,-3,93,-112,-75,28.600000,47.500000,979.020020
16/06/2023,18:11:45.319,-3,24,990,-5,-4,-2,93,-112,-75,28.600000,47.500000,979.020020
16/06/2023,18:11:45.328,-3,24,990,-4,-4,-2,91,-123,-78,28.600000,47.500000,979.020020
16/06/2023,18:11:45.338,0,21,992,-4,-3,-3,82,-118,-96,28.600000,47.500000,979.020020
16/06/2023,18:11:45.348,0,22,993,-4,-2,-4,96,-132,-87,28.600000,47.500000,979.020020
16/06/2023,18:11:45.357,0,22,993,-5,-4,-4,96,-115,-70,28.600000,47.500000,979.020020
16/06/2023,18:11:45.367,-1,21,994,-5,-3,-3,97,-129,-66,28.600000,47.500000,979.020020
16/06/2023,18:11:45.376,-1,24,991,-4,-4,-3,84,-130,-73,28.600000,47.500000,979.020020
16/06/2023,18:11:45.385,-2,25,989,-4,-5,-4,103,-120,-76,28.600000,47.500000,979.020020
16/06/2023,18:11:45.395,0,25,990,-4,-5,-3,85,-126,-79,28.600000,47.500000,979.020020
16/06/2023,18:11:45.404,1,24,991,-4,-4,-3,91,-88,-93,28.600000,47.500000,979.020020
16/06/2023,18:11:45.413,0,23,993,-4,-4,-3,91,-88,-93,28.600000,47.500000,979.020020
16/06/2023,18:11:45.423,-1,22,991,-4,-2,-3,93,-115,-72,28.600000,47.500000,979.020020
16/06/2023,18:11:45.432,-1,24,992,-4,-2,-3,93,-115,-72,28.600000,47.500000,979.020020
16/06/2023,18:11:45.441,-1,24,994,-5,-3,-4,75,-115,-78,28.600000,47.500000,979.020020
16/06/2023,18:11:45.451,-2,22,993,-5,-4,-3,82,-109,-64,28.600000,47.500000,979.020020
16/06/2023,18:11:45.460,-3,23,990,-5,-4,-2,102,-118,-72,28.600000,47.500000,979.020020
16/06/2023,18:11:45.473,-2,25,988,-4,-4,-3,97,-124,-94,28.600000,47.500000,979.020020
16/06/2023,18:11:45.479,0,23,991,-4,-2,-4,96,-115,-72,28.600000,47.500000,979.020020
16/06/2023,18:11:45.488,-1,20,993,-4,-4,-4,85,-132,-76,28.600000,47.500000,979.020020
16/06/2023,18:11:45.497,1,19,992,-4,-4,-2,85,-132,-76,28.600000,47.500000,979.020020
16/06/2023,18:11:45.506,2,22,992,-5,-4,-3,100,-120,-79,28.600000,47.500000,979.020020
16/06/2023,18:11:45.516,0,25,991,-4,-4,-4,93,-121,-85,28.600000,47.500000,979.020020
16/06/2023,18:11:45.526,0,23,990,-5,-5,-3,111,-127,-96,28.600000,47.500000,979.020020
16/06/2023,18:11:45.535,0,21,992,-4,-5,-2,102,-112,-99,28.600000,47.500000,979.020020
16/06/2023,18:11:45.545,-1,22,992,-5,-5,-3,111,-115,-91,28.600000,47.500000,979.020020
16/06/2023,18:11:45.554,-1,24,991,-5,-4,-3,90,-123,-78,28.600000,47.500000,979.020020
16/06/2023,18:11:45.563,0,25,985,-4,-5,-3,91,-121,-88,28.600000,47.500000,979.020020
16/06/2023,18:11:45.573,-1,23,983,-5,-4,-3,93,-117,-84,28.600000,47.500000,979.020020
16/06/2023,18:11:45.582,-2,21,989,-5,-5,-2,85,-135,-64,28.600000,47.500000,979.020020
16/06/2023,18:11:45.591,-1,21,990,-4,-5,-4,85,-135,-64,28.600000,47.500000,979.020020
16/06/2023,18:11:45.600,-1,21,990,-4,-4,-4,102,-129,-76,28.600000,47.500000,979.020020
16/06/2023,18:11:45.610,-2,20,992,-4,-4,-3,88,-129,-87,28.600000,47.500000,979.020020
16/06/2023,18:11:45.619,-1,21,991,-5,-4,-2,103,-112,-79,28.600000,47.500000,979.020020
16/06/2023,18:11:45.629,-1,22,990,-5,-5,-2,99,-120,-67,28.600000,47.500000,979.020020
16/06/2023,18:11:45.638,0,22,991,-4,-5,-3,82,-121,-57,28.600000,47.500000,979.020020
16/06/2023,18:11:45.648,-1,23,991,-5,-4,-4,97,-123,-76,28.600000,47.500000,979.020020
16/06/2023,18:11:45.657,-3,22,991,-4,-4,-4,100,-123,-82,28.600000,47.500000,979.020020
16/06/2023,18:11:45.666,-3,21,993,-4,-4,-3,105,-115,-82,28.600000,47.500000,979.020020
16/06/2023,18:11:45.676,-1,20,992,-5,-2,-3,100,-129,-94,28.600000,47.500000,979.020020
16/06/2023,18:11:45.684,-1,20,992,-5,-3,-3,100,-129,-94,28.600000,47.500000,979.020020
16/06/2023,18:11:45.694,-3,20,991,-5,-4,-3,97,-112,-81,28.600000,47.500000,979.020020
16/06/2023,18:11:45.704,-2,20,992,-5,-4,-3,88,-126,-82,28.600000,47.500000,979.020020
16/06/2023,18:11:45.713,0,20,993,-4,-4,-3,88,-123,-81,28.600000,47.500000,979.020020
16/06/2023,18:11:45.723,0,21,991,-4,-4,-3,73,-120,-72,28.600000,47.500000,979.020020
16/06/2023,18:11:45.732,1,23,991,-4,-4,-3,88,-129,-75,28.600000,47.500000,979.020020
16/06/2023,18:11:45.741,0,21,992,-4,-4,-4,82,-123,-70,28.600000,47.500000,979.020020
16/06/2023,18:11:45.760,-2,20,991,-3,-3,-4,97,-109,-76,28.600000,47.500000,979.020020
16/06/2023,18:11:45.769,-1,19,992,-4,-4,-3,97,-109,-76,28.600000,47.500000,979.020020
16/06/2023,18:11:45.779,-2,21,991,-5,-5,-4,79,-126,-78,28.600000,47.500000,979.020020
16/06/2023,18:11:45.788,0,22,991,-4,-5,-4,93,-109,-63,28.600000,47.500000,979.020020
16/06/2023,18:11:45.798,1,23,993,-4,-5,-4,102,-117,-85,28.600000,47.500000,979.020020
16/06/2023,18:11:45.807,0,23,992,-5,-5,-4,93,-136,-82,28.600000,47.500000,979.020020
16/06/2023,18:11:45.816,-1,21,991,-5,-4,-4,75,-102,-69,28.600000,47.500000,979.020020
16/06/2023,18:11:45.826,0,21,993,-5,-3,-3,96,-112,-73,28.600000,47.500000,979.020020
16/06/2023,18:11:45.835,0,22,991,-5,-3,-3,109,-112,-79,28.600000,47.500000,979.020020
16/06/2023,18:11:45.844,0,22,989,-5,-3,-4,100,-117,-85,28.600000,47.500000,979.020020
16/06/2023,18:11:45.853,-1,21,991,-4,-2,-4,100,-117,-85,28.600000,47.500000,979.020020
16/06/2023,18:11:45.862,-1,21,992,-5,-3,-4,96,-124,-85,28.600000,47.500000,979.020020
16/06/2023,18:11:45.872,1,20,991,-5,-5,-3,90,-120,-85,28.600000,47.500000,979.020020
16/06/2023,18:11:45.882,2,19,992,-4,-5,-3,100,-120,-84,28.600000,47.500000,979.020020
16/06/2023,18:11:45.891,0,20,993,-5,-4,-4,100,-114,-93,28.600000,47.500000,979.020020
16/06/2023,18:11:45.901,-1,24,992,-4,-3,-4,90,-133,-69,28.600000,47.500000,979.020020
16/06/2023,18:11:45.910,0,24,992,-5,-4,-3,100,-117,-81,28.600000,47.500000,979.020020
16/06/2023,18:11:45.919,0,22,991,-5,-5,-3,94,-148,-79,28.600000,47.500000,979.020020
16/06/2023,18:11:45.929,3,23,991,-6,-4,-2,96,-120,-79,28.600000,47.500000,979.020020
16/06/2023,18:11:45.937,2,23,991,-5,-3,-3,96,-120,-79,28.600000,47.500000,979.020020
16/06/2023,18:11:45.947,0,21,991,-5,-3,-4,90,-121,-72,28.600000,47.500000,979.020020
16/06/2023,18:11:45.957,-2,18,991,-5,-4,-3,103,-117,-73,28.600000,47.500000,979.020020
16/06/2023,18:11:45.966,0,19,990,-5,-4,-3,94,-123,-73,28.600000,47.500000,979.020020
16/06/2023,18:11:45.979,0,22,991,-4,-4,-3,85,-118,-75,28.600000,47.500000,979.020020
16/06/2023,18:11:45.985,0,25,991,-5,-3,-4,88,-114,-69,28.600000,47.500000,979.020020
16/06/2023,18:11:45.994,0,23,991,-4,-3,-3,85,-123,-85,28.600000,47.500000,979.020020
16/06/2023,18:11:46.004,2,22,991,-4,-4,-3,100,-121,-88,28.600000,47.500000,979.020020
16/06/2023,18:11:46.013,4,22,992,-5,-4,-3,96,-117,-85,28.600000,47.500000,979.020020
16/06/2023,18:11:46.022,2,23,994,-4,-4,-3,90,-124,-70,28.600000,47.500000,979.020020
16/06/2023,18:11:46.034,2,23,994,-5,-3,-4,90,-124,-70,28.600000,47.500000,979.020020
16/06/2023,18:11:46.041,0,23,995,-5,-4,-4,93,-117,-94,28.600000,47.500000,979.020020
16/06/2023,18:11:46.050,0,21,994,-5,-4,-4,96,-135,-81,28.600000,48.000000,979.059998
16/06/2023,18:11:46.060,-2,19,993,-4,-4,-4,96,-135,-81,28.600000,48.000000,979.059998
16/06/2023,18:11:46.069,0,21,991,-4,-3,-4,84,-132,-76,28.600000,48.000000,979.059998
16/06/2023,18:11:46.079,0,22,991,-5,-3,-4,88,-120,-76,28.600000,48.000000,979.059998
16/06/2023,18:11:46.088,-1,21,992,-4,-4,-4,100,-118,-81,28.600000,48.000000,979.059998
16/06/2023,18:11:46.097,-1,22,991,-4,-4,-3,79,-124,-85,28.600000,48.000000,979.059998
16/06/2023,18:11:46.106,0,22,991,-5,-4,-3,79,-124,-85,28.600000,48.000000,979.059998
16/06/2023,18:11:46.115,-1,21,992,-4,-4,-3,94,-126,-48,28.600000,48.000000,979.059998
16/06/2023,18:11:46.125,0,21,991,-4,-4,-3,91,-117,-75,28.600000,48.000000,979.059998
16/06/2023,18:11:46.135,0,24,991,-3,-4,-3,93,-109,-69,28.600000,48.000000,979.059998
16/06/2023,18:11:46.144,-2,21,992,-4,-5,-3,75,-126,-69,28.600000,48.000000,979.059998
16/06/2023,18:11:46.154,1,20,991,-4,-4,-3,76,-139,-82,28.600000,48.000000,979.059998
16/06/2023,18:11:46.162,2,23,990,-4,-4,-3,73,-112,-79,28.600000,48.000000,979.059998
16/06/2023,18:11:46.172,0,23,989,-4,-4,-2,93,-121,-91,28.600000,48.000000,979.059998
16/06/2023,18:11:46.182,0,23,992,-4,-4,-3,91,-121,-78,28.600000,48.000000,979.059998
16/06/2023,18:11:46.191,0,24,992,-4,-4,-3,85,-124,-82,28.600000,48.000000,979.059998
16/06/2023,18:11:46.200,-1,21,992,-5,0,-4,85,-124,-82,28.600000,48.000000,979.059998
16/06/2023,18:11:46.209,-1,19,992,-5,-3,-4,82,-114,-73,28.600000,48.000000,979.059998
16/06/2023,18:11:46.219,-2,22,991,-4,-4,-4,88,-129,-78,28.600000,48.000000,979.059998
16/06/2023,18:11:46.228,-1,22,992,-4,-3,-5,94,-130,-81,28.600000,48.000000,979.059998
16/06/2023,18:11:46.238,-1,19,994,-4,-5,-4,87,-121,-73,28.600000,48.000000,979.059998
16/06/2023,18:11:46.247,-2,21,993,-4,-4,-3,100,-105,-76,28.600000,48.000000,979.059998
16/06/2023,18:11:46.257,-2,24,993,-4,-3,-3,97,-109,-76,28.600000,48.000000,979.059998
16/06/2023,18:11:46.266,-1,22,993,-4,-3,-3,100,-123,-78,28.600000,48.000000,979.059998
16/06/2023,18:11:46.275,-2,22,994,-5,-4,-2,108,-115,-64,28.600000,48.000000,979.059998
16/06/2023,18:11:46.285,-2,22,992,-5,-4,-2,88,-114,-84,28.600000,48.000000,979.059998
16/06/2023,18:11:46.293,-1,20,989,-4,-4,-3,88,-114,-84,28.600000,48.000000,979.059998
16/06/2023,18:11:46.303,0,21,987,-4,-2,-3,70,-129,-76,28.600000,48.000000,979.059998
16/06/2023,18:11:46.313,-2,23,990,-4,-2,-3,102,-115,-78,28.600000,48.000000,979.059998
16/06/2023,18:11:46.322,-2,21,994,-4,-3,-3,100,-120,-85,28.600000,48.000000,979.059998
16/06/2023,18:11:46.332,0,19,993,-4,-3,-4,93,-121,-76,28.600000,48.000000,979.059998
16/06/2023,18:11:46.341,1,19,991,-4,-4,-4,85,-136,-79,28.600000,48.000000,979.059998
16/06/2023,18:11:46.350,0,22,992,-4,-3,-4,91,-124,-82,28.600000,48.000000,979.059998
16/06/2023,18:11:46.360,-1,22,992,-4,-2,-4,79,-117,-75,28.600000,48.000000,979.059998
16/06/2023,18:11:46.369,-2,20,990,-5,-4,-4,103,-133,-58,28.600000,48.000000,979.059998
16/06/2023,18:11:46.378,-2,20,990,-4,-4,-4,103,-133,-58,28.600000,48.000000,979.059998
16/06/2023,18:11:46.387,-1,22,991,-4,-4,-4,90,-112,-75,28.600000,48.000000,979.059998
16/06/2023,18:11:46.397,1,24,993,-5,-3,-4,87,-123,-69,28.600000,48.000000,979.059998
16/06/2023,18:11:46.406,0,21,991,-4,-4,-4,93,-109,-84,28.600000,48.000000,979.059998
16/06/2023,18:11:46.416,-2,20,990,-5,-4,-2,96,-123,-90,28.600000,48.000000,979.059998
16/06/2023,18:11:46.453,-2,22,991,-4,-2,-4,100,-120,-69,28.600000,48.000000,979.059998
16/06/2023,18:11:46.463,-1,24,993,-5,-2,-3,91,-112,-76,28.600000,48.000000,979.059998
16/06/2023,18:11:46.472,1,24,993,-5,-4,-2,97,-121,-70,28.600000,48.000000,979.059998
16/06/2023,18:11:46.481,-1,22,990,-4,-5,-4,97,-121,-70,28.600000,48.000000,979.059998
16/06/2023,18:11:46.490,-2,21,993,-4,-4,-4,85,-117,-75,28.600000,48.000000,979.059998
16/06/2023,18:11:46.500,0,20,994,-4,-3,-3,84,-126,-88,28.600000,48.000000,979.059998
16/06/2023,18:11:46.510,0,20,992,-5,-4,-4,106,-123,-84,28.600000,48.000000,979.059998
16/06/2023,18:11:46.519,0,23,991,-4,-5,-3,106,-121,-90,28.600000,48.000000,979.059998
16/06/2023,18:11:46.528,0,24,992,-4,-4,-3,96,-133,-75,28.600000,48.000000,979.059998
16/06/2023,18:11:46.538,1,22,991,-5,-3,-4,87,-109,-70,28.600000,48.000000,979.059998
16/06/2023,18:11:46.547,0,24,990,-4,-5,-4,91,-135,-84,28.600000,48.000000,979.059998
16/06/2023,18:11:46.556,0,24,991,-4,-4,-4,85,-121,-81,28.600000,48.000000,979.059998
16/06/2023,18:11:46.566,-1,20,993,-3,-3,-4,99,-117,-72,28.600000,48.000000,979.059998
16/06/2023,18:11:46.575,-3,20,994,-4,-4,-3,99,-117,-72,28.600000,48.000000,979.059998
16/06/2023,18:11:46.584,-2,23,993,-4,-4,-3,81,-108,-81,28.600000,48.000000,979.059998
16/06/2023,18:11:46.594,0,24,993,-4,-4,-2,97,-124,-91,28.600000,48.000000,979.059998
16/06/2023,18:11:46.603,0,24,992,-5,-4,-3,88,-106,-87,28.600000,48.000000,979.059998
16/06/2023,18:11:46.616,-1,22,991,-4,-4,-3,96,-123,-91,28.600000,48.000000,979.059998
16/06/2023,18:11:46.622,-3,21,990,-4,-3,-4,102,-121,-105,28.600000,48.000000,979.059998
16/06/2023,18:11:46.631,-3,24,990,-4,-2,-4,94,-109,-79,28.600000,48.000000,979.059998
16/06/2023,18:11:46.641,0,24,990,-5,-4,-4,90,-112,-93,28.600000,48.000000,979.059998
16/06/2023,18:11:46.650,-1,23,991,-5,-4,-4,94,-114,-72,28.600000,48.000000,979.059998
16/06/2023,18:11:46.659,-1,20,991,-5,-5,-3,78,-136,-79,28.600000,48.000000,979.059998
16/06/2023,18:11:46.668,0,20,993,-4,-4,-3,78,-136,-79,28.600000,48.000000,979.059998
16/06/2023,18:11:46.678,0,23,991,-5,-4,-3,103,-132,-70,28.600000,48.000000,979.059998
16/06/2023,18:11:46.688,0,23,990,-5,-4,-3,82,-127,-70,28.600000,48.000000,979.059998
16/06/2023,18:11:46.697,0,23,992,-5,-4,-3,96,-115,-79,28.600000,48.000000,979.059998
16/06/2023,18:11:46.706,-1,24,991,-4,-5,-4,100,-132,-72,28.600000,48.000000,979.059998
16/06/2023,18:11:46.716,0,20,989,-5,-5,-3,108,-126,-99,28.600000,48.000000,979.059998
16/06/2023,18:11:46.725,0,19,991,-5,-5,-4,102,-117,-84,28.600000,48.000000,979.059998
16/06/2023,18:11:46.734,0,19,991,-5,-5,-4,94,-121,-88,28.600000,48.000000,979.059998
16/06/2023,18:11:46.744,-2,19,992,-4,-4,-4,90,-117,-81,28.600000,48.000000,979.059998
16/06/2023,18:11:46.753,-2,19,992,-4,-4,-3,90,-124,-79,28.600000,48.000000,979.059998
16/06/2023,18:11:46.762,-1,19,994,-5,-6,-4,90,-124,-79,28.600000,48.000000,979.059998
16/06/2023,18:11:46.771,-1,21,992,-5,-4,-4,78,-136,-91,28.600000,48.000000,979.059998
16/06/2023,18:11:46.781,-2,22,991,-5,-7,-3,88,-121,-79,28.600000,48.000000,979.059998
16/06/2023,18:11:46.791,-2,21,993,-4,-4,-3,87,-112,-69,28.600000,48.000000,979.059998
16/06/2023,18:11:46.800,0,22,994,-5,-3,-3,85,-114,-78,28.600000,48.000000,979.059998
16/06/2023,18:11:46.809,-1,21,991,-5,-4,-4,87,-118,-73,28.600000,48.000000,979.059998
16/06/2023,18:11:46.819,-3,21,990,-5,-5,-3,88,-127,-78,28.600000,48.000000,979.059998
16/06/2023,18:11:46.828,-2,23,991,-3,-4,-4,117,-117,-85,28.600000,48.000000,979.059998
16/06/2023,18:11:46.837,0,24,992,-4,-7,-3,88,-114,-79,28.600000,48.000000,979.059998
16/06/2023,18:11:46.846,0,22,992,-4,-5,-4,88,-114,-79,28.600000,48.000000,979.059998
16/06/2023,18:11:46.856,0,21,993,-4,-4,-4,87,-138,-76,28.600000,48.000000,979.059998
16/06/2023,18:11:46.866,0,20,993,-5,-4,-4,118,-105,-97,28.600000,48.000000,979.059998
16/06/2023,18:11:46.875,0,22,990,-5,-4,-4,82,-114,-88,28.600000,48.000000,979.059998
16/06/2023,18:11:46.884,-1,22,991,-4,-4,-4,102,-123,-79,28.600000,48.000000,979.059998
16/06/2023,18:11:46.894,-1,21,993,-4,-4,-3,91,-121,-82,28.600000,48.000000,979.059998
16/06/2023,18:11:46.903,-3,21,990,-5,-4,-4,88,-123,-78,28.600000,48.000000,979.059998
16/06/2023,18:11:46.912,-2,22,989,-5,-4,-4,97,-115,-66,28.600000,48.000000,979.059998
16/06/2023,18:11:46.922,0,22,992,-4,-4,-4,90,-126,-75,28.600000,48.000000,979.059998
16/06/2023,18:11:46.931,0,22,993,-5,-3,-3,99,-132,-84,28.600000,48.000000,979.059998
16/06/2023,18:11:46.940,-1,23,992,-4,-3,-4,99,-132,-84,28.600000,48.000000,979.059998
16/06/2023,18:11:46.950,-2,22,991,-4,-3,-4,82,-121,-67,28.600000,48.000000,979.059998
16/06/2023,18:11:46.959,-3,22,992,-5,-4,-3,82,-121,-67,28.600000,48.000000,979.059998
16/06/2023,18:11:46.969,-2,24,993,-4,-4,-4,109,-120,-88,28.600000,48.000000,979.059998
16/06/2023,18:11:46.978,-1,22,991,-4,-5,-3,90,-129,-75,28.600000,48.000000,979.059998
16/06/2023,18:11:46.987,-2,19,991,-4,-6,-3,82,-118,-67,28.600000,48.000000,979.059998
16/06/2023,18:11:46.996,-2,19,991,-5,-5,-3,102,-133,-87,28.600000,48.000000,979.059998
16/06/2023,18:11:47.006,-2,20,990,-5,-5,-3,103,-115,-90,28.600000,48.000000,979.059998
16/06/2023,18:11:47.015,-1,21,991,-5,-4,-4,103,-115,-90,28.600000,48.000000,979.059998
16/06/2023,18:11:47.024,2,22,992,-5,-4,-4,94,-114,-88,28.600000,48.000000,979.059998
16/06/2023,18:11:47.034,1,22,992,-3,-4,-3,87,-123,-93,28.600000,48.000000,979.059998
16/06/2023,18:11:47.044,-1,22,992,-4,-4,-4,91,-136,-81,28.600000,48.000000,979.059998
16/06/2023,18:11:47.053,-1,21,991,-4,-3,-4,91,-117,-81,28.600000,48.000000,979.059998
16/06/2023,18:11:47.062,0,20,990,-4,-5,-3,100,-120,-70,28.600000,48.000000,979.059998
16/06/2023,18:11:47.072,0,21,990,-4,-4,-3,82,-120,-78,28.600000,48.000000,979.059998
16/06/2023,18:11:47.081,0,21,990,-4,-4,-3,79,-141,-84,28.600000,48.000000,979.059998
16/06/2023,18:11:47.091,0,24,990,-4,-5,-3,79,-141,-84,28.600000,47.299999,979.059998
16/06/2023,18:11:47.100,0,23,991,-4,-4,-4,100,-106,-72,28.600000,47.299999,979.229980
16/06/2023,18:11:47.109,0,20,993,-4,-3,-4,100,-106,-72,28.600000,47.299999,979.229980
16/06/2023,18:11:47.128,0,22,990,-4,-6,-2,90,-109,-58,28.600000,47.299999,979.229980
16/06/2023,18:11:47.137,-1,23,991,-4,-5,-3,100,-117,-87,28.600000,47.299999,979.229980
16/06/2023,18:11:47.147,-1,20,994,-4,-6,-4,94,-124,-84,28.600000,47.299999,979.229980
16/06/2023,18:11:47.156,-3,20,995,-4,-5,-4,97,-124,-78,28.600000,47.299999,979.229980
16/06/2023,18:11:47.165,-2,21,993,-4,-5,-3,97,-126,-73,28.600000,47.299999,979.229980
16/06/2023,18:11:47.178,0,21,993,-4,-5,-4,100,-127,-88,28.600000,47.299999,979.229980
16/06/2023,18:11:47.184,0,21,994,-4,-7,-3,97,-126,-73,28.600000,47.299999,979.229980
16/06/2023,18:11:47.193,0,20,992,-5,-5,-2,87,-118,-85,28.600000,47.299999,979.229980
16/06/2023,18:11:47.202,-1,23,992,-5,-4,-3,87,-118,-85,28.600000,47.299999,979.229980
16/06/2023,18:11:47.212,-1,22,990,-4,-4,-4,87,-127,-87,28.600000,47.299999,979.229980
16/06/2023,18:11:47.222,0,22,990,-4,-4,-3,91,-108,-79,28.600000,47.299999,979.229980
16/06/2023,18:11:47.231,1,22,991,-5,-6,-3,93,-127,-99,28.600000,47.299999,979.229980
16/06/2023,18:11:47.240,0,23,991,-5,-4,-4,85,-117,-88,28.600000,47.299999,979.229980
16/06/2023,18:11:47.250,0,24,992,-4,-3,-4,97,-118,-81,28.600000,47.299999,979.229980
16/06/2023,18:11:47.259,-1,22,992,-3,-4,-3,96,-117,-93,28.600000,47.299999,979.229980
16/06/2023,18:11:47.268,-1,24,992,-4,-4,-4,78,-118,-84,28.600000,47.299999,979.229980
16/06/2023,18:11:47.278,0,24,991,-4,-4,-3,88,-118,-81,28.600000,47.299999,979.229980
16/06/2023,18:11:47.287,0,20,991,-4,-5,-4,106,-123,-84,28.600000,47.299999,979.229980
16/06/2023,18:11:47.296,-2,19,992,-4,-5,-3,106,-123,-84,28.600000,47.299999,979.229980
16/06/2023,18:11:47.305,-3,21,991,-4,-4,-3,103,-120,-79,28.600000,47.299999,979.229980
16/06/2023,18:11:47.315,0,24,990,-5,-4,-4,108,-141,-82,28.600000,47.299999,979.229980
16/06/2023,18:11:47.325,0,23,992,-4,-4,-3,102,-108,-73,28.600000,47.299999,979.229980
16/06/2023,18:11:47.334,0,19,992,-4,-4,-4,87,-114,-73,28.600000,47.299999,979.229980
16/06/2023,18:11:47.343,1,20,993,-4,-5,-4,90,-120,-57,28.600000,47.299999,979.229980
16/06/2023,18:11:47.353,1,24,993,-4,-5,-4,97,-118,-87,28.600000,47.299999,979.229980
16/06/2023,18:11:47.362,0,21,991,-5,-5,-4,90,-112,-85,28.600000,47.299999,979.229980
16/06/2023,18:11:47.371,0,18,991,-4,-4,-4,82,-126,-87,28.600000,47.299999,979.229980
16/06/2023,18:11:47.381,-1,21,992,-4,-4,-3,102,-115,-87,28.600000,47.299999,979.229980
16/06/2023,18:11:47.390,0,22,994,-4,-5,-4,102,-115,-87,28.600000,47.299999,979.229980
16/06/2023,18:11:47.399,0,22,994,-4,-4,-4,117,-124,-72,28.600000,47.299999,979.229980
16/06/2023,18:11:47.409,0,21,991,-4,-5,-3,97,-124,-85,28.600000,47.299999,979.229980
16/06/2023,18:11:47.418,0,21,991,-4,-3,-4,96,-132,-84,28.600000,47.299999,979.229980
16/06/2023,18:11:47.428,0,22,991,-5,-3,-4,99,-117,-84,28.600000,47.299999,979.229980
16/06/2023,18:11:47.437,1,23,993,-5,-4,-3,108,-106,-85,28.600000,47.299999,979.229980
16/06/2023,18:11:47.446,2,24,992,-5,-6,-3,108,-126,-93,28.600000,47.299999,979.229980
16/06/2023,18:11:47.456,0,24,992,-5,-5,-3,84,-129,-87,28.600000,47.299999,979.229980
16/06/2023,18:11:47.465,0,22,992,-5,-3,-3,93,-135,-85,28.600000,47.299999,979.229980
16/06/2023,18:11:47.475,1,23,988,-5,-4,-3,99,-124,-91,28.600000,47.299999,979.229980
16/06/2023,18:11:47.483,0,24,988,-4,-4,-3,99,-124,-91,28.600000,47.299999,979.229980
16/06/2023,18:11:47.493,-3,21,992,-5,-4,-4,102,-123,-99,28.600000,47.299999,979.229980
16/06/2023,18:11:47.503,-3,21,991,-5,-4,-4,93,-123,-96,28.600000,47.299999,979.229980
16/06/2023,18:11:47.512,-1,23,991,-5,-4,-3,90,-109,-70,28.600000,47.299999,979.229980
16/06/2023,18:11:47.521,-3,23,991,-5,-4,-3,82,-111,-82,28.600000,47.299999,979.229980
16/06/2023,18:11:47.531,0,19,992,-5,-4,-3,79,-138,-94,28.600000,47.299999,979.229980
16/06/2023,18:11:47.540,1,19,992,-4,-3,-4,100,-130,-75,28.600000,47.299999,979.229980
16/06/2023,18:11:47.549,1,23,991,-4,-4,-3,85,-132,-81,28.600000,47.299999,979.229980
16/06/2023,18:11:47.559,0,22,990,-5,-4,-4,91,-130,-100,28.600000,47.299999,979.229980
16/06/2023,18:11:47.568,0,22,991,-5,0,-5,81,-132,-91,28.600000,47.299999,979.229980
16/06/2023,18:11:47.577,0,24,992,-4,-3,-5,81,-132,-91,28.600000,47.299999,979.229980
16/06/2023,18:11:47.586,0,21,993,-4,-4,-4,103,-129,-91,28.600000,47.299999,979.229980
16/06/2023,18:11:47.596,0,19,994,-5,-4,-5,94,-118,-85,28.600000,47.299999,979.229980
16/06/2023,18:11:47.606,-1,20,993,-4,-4,-4,84,-126,-100,28.600000,47.299999,979.229980
16/06/2023,18:11:47.615,-1,21,992,-4,-5,-5,91,-114,-91,28.600000,47.299999,979.229980
16/06/2023,18:11:47.624,-1,22,991,-5,-4,-4,97,-129,-79,28.600000,47.299999,979.229980
16/06/2023,18:11:47.634,-1,21,993,-5,-5,-4,87,-108,-88,28.600000,47.299999,979.229980
16/06/2023,18:11:47.643,-2,22,993,-5,-4,-4,97,-99,-102,28.600000,47.299999,979.229980
16/06/2023,18:11:47.653,-2,21,992,-4,-5,-2,84,-127,-91,28.600000,47.299999,979.229980
16/06/2023,18:11:47.662,0,21,993,-5,-5,-3,105,-127,-79,28.600000,47.299999,979.229980
16/06/2023,18:11:47.671,1,21,994,-5,-5,-4,105,-127,-79,28.600000,47.299999,979.229980
16/06/2023,18:11:47.680,1,23,991,-5,-4,-3,94,-133,-79,28.600000,47.299999,979.229980
16/06/2023,18:11:47.690,0,24,991,-5,-4,-3,94,-133,-79,28.600000,47.299999,979.229980
16/06/2023,18:11:47.699,-1,24,994,-5,-4,-2,108,-126,-82,28.600000,47.299999,979.229980
16/06/2023,18:11:47.709,0,22,993,-4,-4,-3,67,-121,-76,28.600000,47.299999,979.229980
16/06/2023,18:11:47.718,1,21,989,-4,-5,-4,91,-132,-82,28.600000,47.299999,979.229980
16/06/2023,18:11:47.727,-1,21,989,-5,-6,-3,91,-120,-97,28.600000,47.299999,979.229980
16/06/2023,18:11:47.737,-2,20,991,-5,-4,-3,94,-123,-76,28.600000,47.299999,979.229980
16/06/2023,18:11:47.746,0,20,990,-4,-4,-4,106,-117,-97,28.600000,47.299999,979.229980
16/06/2023,18:11:47.756,1,23,989,-4,-4,-4,109,-114,-84,28.600000,47.299999,979.229980
16/06/2023,18:11:47.764,1,23,989,-4,-4,-3,109,-114,-84,28.600000,47.299999,979.229980
16/06/2023,18:11:47.774,0,23,993,-4,-4,-3,90,-121,-88,28.600000,47.299999,979.229980
16/06/2023,18:11:47.792,-3,21,993,-5,-5,-3,103,-129,-73,28.600000,47.299999,979.229980
16/06/2023,18:11:47.802,0,23,992,-4,-5,-3,67,-118,-63,28.600000,47.299999,979.229980
16/06/2023,18:11:47.812,-1,22,991,-4,-5,-3,91,-114,-82,28.600000,47.299999,979.229980
16/06/2023,18:11:47.821,-2,19,991,-4,-5,-3,88,-123,-76,28.600000,47.299999,979.229980
16/06/2023,18:11:47.830,-1,19,991,-5,-4,-3,96,-124,-75,28.600000,47.299999,979.229980
16/06/2023,18:11:47.840,-1,20,991,-4,-5,-3,106,-117,-78,28.600000,47.299999,979.229980
16/06/2023,18:11:47.849,-2,21,992,-5,-4,-3,106,-117,-78,28.600000,47.299999,979.229980
16/06/2023,18:11:47.858,-2,19,991,-4,-3,-4,99,-127,-94,28.600000,47.299999,979.229980
16/06/2023,18:11:47.868,-1,19,992,-4,-4,-3,88,-114,-99,28.600000,47.299999,979.229980
16/06/2023,18:11:47.877,0,20,993,-4,-3,-3,93,-117,-79,28.600000,47.299999,979.229980
16/06/2023,18:11:47.887,-2,22,992,-5,-3,-2,103,-118,-73,28.600000,47.299999,979.229980
16/06/2023,18:11:47.896,-3,21,990,-5,-4,-2,88,-124,-103,28.600000,47.299999,979.229980
16/06/2023,18:11:47.906,-1,18,990,-4,-7,-3,111,-130,-84,28.600000,47.299999,979.229980
16/06/2023,18:11:47.915,0,18,990,-4,-4,-4,114,-114,-82,28.600000,47.299999,979.229980
16/06/2023,18:11:47.924,0,19,990,-4,-4,-4,90,-114,-102,28.600000,47.299999,979.229980
16/06/2023,18:11:47.934,-1,21,991,-5,-4,-3,103,-135,-94,28.600000,47.299999,979.229980
16/06/2023,18:11:47.942,-1,22,992,-4,-4,-3,103,-135,-94,28.600000,47.299999,979.229980
16/06/2023,18:11:47.952,0,20,992,-4,-4,-4,97,-109,-88,28.600000,47.299999,979.229980
16/06/2023,18:11:47.962,-1,20,992,-4,-4,-4,94,-129,-84,28.600000,47.299999,979.229980
16/06/2023,18:11:47.971,-1,22,991,-4,-4,-3,99,-138,-82,28.600000,47.299999,979.229980
16/06/2023,18:11:47.980,0,22,991,-4,-5,-3,105,-117,-109,28.600000,47.299999,979.229980
16/06/2023,18:11:47.990,-1,22,992,-3,-4,-3,96,-117,-85,28.600000,47.299999,979.229980
16/06/2023,18:11:47.999,-1,22,991,-4,-4,-4,90,-129,-78,28.600000,47.299999,979.229980
16/06/2023,18:11:48.009,-3,22,992,-4,-5,-3,97,-114,-97,28.600000,47.299999,979.229980
16/06/2023,18:11:48.018,-4,23,995,-4,-5,-3,90,-123,-88,28.600000,47.299999,979.229980
16/06/2023,18:11:48.027,-3,23,994,-5,-5,-3,103,-126,-90,28.600000,47.299999,979.229980
16/06/2023,18:11:48.036,-2,21,991,-5,-4,-4,103,-126,-90,28.600000,47.299999,979.229980
16/06/2023,18:11:48.045,-1,19,990,-4,-4,-4,102,-105,-84,28.600000,47.299999,979.229980
16/06/2023,18:11:48.055,-1,19,991,-5,-4,-3,96,-133,-87,28.600000,47.299999,979.229980
16/06/2023,18:11:48.065,1,20,992,-5,-5,-3,108,-123,-76,28.600000,47.299999,979.229980
16/06/2023,18:11:48.074,3,21,992,-5,-3,-3,84,-118,-82,28.600000,47.299999,979.229980
16/06/2023,18:11:48.084,2,22,993,-4,-4,-3,93,-124,-90,28.600000,47.299999,979.229980
16/06/2023,18:11:48.093,0,21,993,-4,-4,-3,111,-133,-103,28.600000,47.299999,979.229980
16/06/2023,18:11:48.102,-2,23,992,-4,-5,-4,96,-123,-87,28.600000,47.299999,979.229980
16/06/2023,18:11:48.112,-2,23,992,-4,-4,-4,103,-111,-79,28.600000,47.299999,979.229980
16/06/2023,18:11:48.121,-1,25,992,-4,-4,-3,103,-121,-81,28.600000,47.299999,979.229980
16/06/2023,18:11:48.130,-1,24,992,-4,-4,-3,103,-121,-81,28.600000,47.299999,979.229980
16/06/2023,18:11:48.140,-1,24,993,-5,-4,-4,87,-123,-75,28.600000,47.400002,979.059998
16/06/2023,18:11:48.149,-4,22,991,-5,-3,-4,87,-114,-82,28.600000,47.400002,979.059998
16/06/2023,18:11:48.158,-3,21,991,-5,-4,-3,99,-115,-108,28.600000,47.400002,979.059998
16/06/2023,18:11:48.168,0,23,993,-5,-5,-3,108,-123,-87,28.600000,47.400002,979.059998
16/06/2023,18:11:48.177,1,23,992,-4,-3,-4,108,-126,-84,28.600000,47.400002,979.059998
16/06/2023,18:11:48.187,0,20,992,-4,-5,-3,90,-120,-81,28.600000,47.400002,979.059998
16/06/2023,18:11:48.196,-1,20,992,-5,-6,-3,106,-114,-87,28.600000,47.400002,979.059998
16/06/2023,18:11:48.205,-1,21,993,-5,-5,-4,88,-126,-94,28.600000,47.400002,979.059998
16/06/2023,18:11:48.214,-1,21,993,-5,-5,-4,88,-126,-94,28.600000,47.400002,979.059998
16/06/2023,18:11:48.223,-3,22,993,-4,-4,-3,91,-124,-91,28.600000,47.400002,979.059998
16/06/2023,18:11:48.237,-3,22,994,-4,-4,-3,106,-112,-84,28.600000,47.400002,979.059998
16/06/2023,18:11:48.243,-1,21,993,-4,-8,-3,97,-127,-82,28.600000,47.400002,979.059998
16/06/2023,18:11:48.252,-2,21,991,-5,-5,-4,87,-115,-88,28.600000,47.400002,979.059998
16/06/2023,18:11:48.262,-2,19,990,-4,-3,-2,93,-130,-88,28.600000,47.400002,979.059998
16/06/2023,18:11:48.271,-2,19,992,-4,-5,-3,114,-135,-87,28.600000,47.400002,979.059998
16/06/2023,18:11:48.280,-4,22,991,-4,-5,-2,105,-133,-90,28.600000,47.400002,979.059998
16/06/2023,18:11:48.290,-2,22,992,-5,-5,-3,73,-106,-76,28.600000,47.400002,979.059998
16/06/2023,18:11:48.299,0,21,993,-4,-5,-3,79,-117,-112,28.600000,47.400002,979.059998
16/06/2023,18:11:48.308,0,20,992,-4,-5,-3,79,-117,-112,28.600000,47.400002,979.059998
16/06/2023,18:11:48.317,0,22,992,-4,-4,-3,106,-120,-88,28.600000,47.400002,979.059998
16/06/2023,18:11:48.327,0,23,991,-5,-4,-3,93,-132,-91,28.600000,47.400002,979.059998
16/06/2023,18:11:48.336,0,22,989,-5,-4,-4,96,-132,-90,28.600000,47.400002,979.059998
16/06/2023,18:11:48.346,-2,22,990,-4,-3,-3,82,-130,-103,28.600000,47.400002,979.059998
16/06/2023,18:11:48.355,-1,23,992,-5,-3,-4,96,-136,-91,28.600000,47.400002,979.059998
16/06/2023,18:11:48.365,2,23,993,-4,-3,-3,85,-120,-85,28.600000,47.400002,979.059998
16/06/2023,18:11:48.374,0,21,991,-4,-4,-3,88,-130,-88,28.600000,47.400002,979.059998
16/06/2023,18:11:48.383,-3,21,990,-4,-4,-3,90,-124,-85,28.600000,47.400002,979.059998
16/06/2023,18:11:48.393,0,22,991,-5,-5,-3,105,-127,-97,28.600000,47.400002,979.059998
16/06/2023,18:11:48.401,0,21,992,-4,-4,-4,105,-127,-97,28.600000,47.400002,979.059998
16/06/2023,18:11:48.411,-3,22,991,-4,-4,-3,75,-124,-93,28.600000,47.400002,979.059998
16/06/2023,18:11:48.421,-1,22,991,-4,-4,-3,99,-117,-87,28.600000,47.400002,979.059998
16/06/2023,18:11:48.430,-1,22,992,-5,-4,-4,85,-115,-87,28.600000,47.400002,979.059998
16/06/2023,18:11:48.440,-2,22,995,-5,-4,-4,79,-132,-69,28.600000,47.400002,979.059998
16/06/2023,18:11:48.449,-1,23,994,-4,-4,-4,97,-117,-87,28.600000,47.400002,979.059998
16/06/2023,18:11:48.468,0,21,990,-4,-2,-4,87,-120,-72,28.600000,47.400002,979.059998
16/06/2023,18:11:48.477,0,20,988,-4,-2,-3,100,-111,-87,28.600000,47.400002,979.059998
16/06/2023,18:11:48.486,-2,21,993,-4,-4,-2,90,-121,-93,28.600000,47.400002,979.059998
16/06/2023,18:11:48.495,0,22,995,-5,-4,-2,90,-121,-93,28.600000,47.400002,979.059998
16/06/2023,18:11:48.505,0,22,990,-4,-2,-3,115,-120,-105,28.600000,47.400002,979.059998
16/06/2023,18:11:48.514,-2,22,988,-5,-4,-4,79,-133,-84,28.600000,47.400002,979.059998
16/06/2023,18:11:48.524,-1,23,995,-5,-3,-4,99,-126,-96,28.600000,47.400002,979.059998
16/06/2023,18:11:48.533,-1,20,998,-4,-4,-3,82,-126,-91,28.600000,47.400002,979.059998
16/06/2023,18:11:48.543,0,20,985,-4,-4,-4,85,-127,-105,28.600000,47.400002,979.059998
16/06/2023,18:11:48.552,0,22,988,-3,-5,-5,85,-109,-94,28.600000,47.400002,979.059998
16/06/2023,18:11:48.561,0,22,998,-5,-4,-3,85,-126,-103,28.600000,47.400002,979.059998
16/06/2023,18:11:48.571,1,22,988,-5,-2,-4,85,-109,-91,28.600000,47.400002,979.059998
16/06/2023,18:11:48.580,0,22,985,-4,-4,-3,94,-118,-97,28.600000,47.400002,979.059998
16/06/2023,18:11:48.589,0,21,995,-4,-5,-4,94,-118,-97,28.600000,47.400002,979.059998
16/06/2023,18:11:48.598,0,20,996,-5,-5,-4,103,-114,-91,28.600000,47.400002,979.059998
16/06/2023,18:11:48.608,1,22,989,-4,-3,-4,85,-117,-81,28.600000,47.400002,979.059998
16/06/2023,18:11:48.618,0,21,993,-4,-3,-3,96,-127,-85,28.600000,47.400002,979.059998
16/06/2023,18:11:48.627,0,21,998,-5,-4,-4,100,-130,-75,28.600000,47.400002,979.059998
16/06/2023,18:11:48.636,-1,24,990,-5,-4,-4,103,-132,-67,28.600000,47.400002,979.059998
16/06/2023,18:11:48.646,0,25,989,-4,-6,-3,90,-117,-88,28.600000,47.400002,979.059998
16/06/2023,18:11:48.655,0,24,996,-5,-5,-3,111,-132,-93,28.600000,47.400002,979.059998
16/06/2023,18:11:48.664,0,23,995,-5,-3,-3,87,-126,-78,28.600000,47.400002,979.059998
16/06/2023,18:11:48.674,0,22,991,-4,-5,-4,106,-120,-79,28.600000,47.400002,979.059998
16/06/2023,18:11:48.683,0,19,994,-4,-5,-4,106,-120,-79,28.600000,47.400002,979.059998
16/06/2023,18:11:48.692,1,19,992,-5,-3,-4,85,-127,-102,28.600000,47.400002,979.059998
16/06/2023,18:11:48.702,0,21,990,-5,-3,-3,84,-111,-87,28.600000,47.400002,979.059998
16/06/2023,18:11:48.711,-3,23,991,-4,-4,-3,97,-129,-87,28.600000,47.400002,979.059998
16/06/2023,18:11:48.721,0,21,992,-4,-4,-3,105,-115,-93,28.600000,47.400002,979.059998
16/06/2023,18:11:48.730,0,21,993,-4,-4,-3,94,-130,-88,28.600000,47.400002,979.059998
16/06/2023,18:11:48.743,0,21,990,-4,-2,-3,93,-130,-96,28.600000,47.400002,979.059998
16/06/2023,18:11:48.749,0,21,990,-5,-4,-3,94,-120,-94,28.600000,47.400002,979.059998
16/06/2023,18:11:48.758,0,21,993,-4,-4,-3,118,-127,-81,28.600000,47.400002,979.059998
16/06/2023,18:11:48.767,-3,22,992,-5,-3,-3,118,-127,-81,28.600000,47.400002,979.059998
16/06/2023,18:11:48.776,-3,22,992,-5,-3,-3,82,-126,-97,28.600000,47.400002,979.059998
16/06/2023,18:11:48.786,1,22,993,-5,-3,-3,82,-121,-85,28.600000,47.400002,979.059998
16/06/2023,18:11:48.799,1,23,994,-4,-4,-3,91,-112,-99,28.600000,47.400002,979.059998
16/06/2023,18:11:48.805,1,23,994,-4,-3,-3,79,-135,-82,28.600000,47.400002,979.059998
16/06/2023,18:11:48.814,1,21,991,-4,-3,-4,109,-123,-87,28.600000,47.400002,979.059998
16/06/2023,18:11:48.824,0,20,991,-4,-4,-4,94,-121,-88,28.600000,47.400002,979.059998
16/06/2023,18:11:48.833,0,21,994,-3,-4,-3,94,-117,-75,28.600000,47.400002,979.059998
16/06/2023,18:11:48.842,0,23,994,-4,-4,-3,105,-120,-90,28.600000,47.400002,979.059998
16/06/2023,18:11:48.852,0,23,991,-5,-3,-2,90,-112,-70,28.600000,47.400002,979.059998
16/06/2023,18:11:48.861,-1,22,991,-4,-2,-5,90,-112,-70,28.600000,47.400002,979.059998
16/06/2023,18:11:48.870,-1,22,992,-4,-2,-4,102,-126,-82,28.600000,47.400002,979.059998
16/06/2023,18:11:48.880,0,21,991,-4,-3,-3,88,-124,-67,28.600000,47.400002,979.059998
16/06/2023,18:11:48.889,0,21,992,-5,-4,-3,105,-139,-84,28.600000,47.400002,979.059998
16/06/2023,18:11:48.899,1,22,994,-4,-2,-4,85,-114,-90,28.600000,47.400002,979.059998
16/06/2023,18:11:48.908,-1,22,992,-5,-2,-4,84,-139,-87,28.600000,47.400002,979.059998
16/06/2023,18:11:48.917,-1,22,991,-4,-4,-3,96,-112,-97,28.600000,47.400002,979.059998
16/06/2023,18:11:48.927,3,20,991,-5,-4,-3,105,-108,-97,28.600000,47.400002,979.059998
16/06/2023,18:11:48.936,0,19,993,-5,-3,-3,100,-138,-90,28.600000,47.400002,979.059998
16/06/2023,18:11:48.945,-3,20,994,-4,-3,-4,84,-123,-94,28.600000,47.400002,979.059998
16/06/2023,18:11:48.954,-1,20,992,-4,-4,-4,84,-123,-94,28.600000,47.400002,979.059998
16/06/2023,18:11:48.964,1,21,990,-4,-5,-4,96,-120,-81,28.600000,47.400002,979.059998
16/06/2023,18:11:48.974,0,21,991,-5,-3,-4,100,-126,-79,28.600000,47.400002,979.059998
16/06/2023,18:11:48.983,-2,24,991,-5,-5,-3,108,-120,-100,28.600000,47.400002,979.059998
16/06/2023,18:11:48.992,-1,24,992,-6,-4,-3,94,-120,-96,28.600000,47.400002,979.059998
16/06/2023,18:11:49.002,0,21,992,-5,-3,-3,93,-121,-78,28.600000,47.400002,979.059998
16/06/2023,18:11:49.011,0,21,991,-5,-4,-3,84,-117,-79,28.600000,47.400002,979.059998
16/06/2023,18:11:49.020,0,20,993,-5,-4,-4,73,-126,-69,28.600000,47.400002,979.059998
16/06/2023,18:11:49.030,0,22,994,-5,-3,-3,87,-117,-88,28.600000,47.400002,979.059998
16/06/2023,18:11:49.039,-2,23,993,-4,-4,-2,93,-124,-96,28.600000,47.400002,979.059998
16/06/2023,18:11:49.048,-1,20,993,-3,-4,-4,93,-124,-96,28.600000,47.400002,979.059998
16/06/2023,18:11:49.057,-1,20,994,-4,-4,-4,100,-118,-96,28.600000,47.400002,979.059998
16/06/2023,18:11:49.067,0,20,994,-4,-4,-4,84,-120,-87,28.600000,47.400002,979.059998
16/06/2023,18:11:49.077,0,21,995,-4,-4,-4,93,-133,-84,28.600000,47.400002,979.059998
16/06/2023,18:11:49.086,-1,25,993,-4,-4,-5,100,-120,-81,28.600000,47.400002,979.059998
16/06/2023,18:11:49.095,-1,24,990,-4,-5,-4,112,-117,-94,28.600000,47.400002,979.059998
16/06/2023,18:11:49.105,-2,20,992,-4,-5,-3,108,-118,-90,28.600000,47.400002,979.059998
16/06/2023,18:11:49.114,-2,21,994,-4,-3,-3,99,-130,-88,28.600000,47.400002,979.059998
16/06/2023,18:11:49.123,-1,23,990,-5,-2,-4,79,-118,-90,28.600000,47.400002,979.059998
16/06/2023,18:11:49.142,-2,24,995,-4,-4,-4,99,-124,-67,28.600000,47.400002,979.059998
16/06/2023,18:11:49.151,0,24,989,-5,-2,-4,102,-115,-90,28.600000,47.400002,979.059998
16/06/2023,18:11:49.161,0,22,987,-5,-3,-3,100,-120,-93,28.600000,47.400002,979.059998
16/06/2023,18:11:49.170,0,22,996,-5,-3,-3,102,-121,-90,28.600000,47.400002,979.059998
16/06/2023,18:11:49.180,0,23,995,-4,-2,-4,102,-108,-99,28.299999,47.700001,979.070007
16/06/2023,18:11:49.189,0,21,986,-4,-4,-4,90,-127,-91,28.299999,47.700001,979.070007
16/06/2023,18:11:49.198,1,21,991,-4,-6,-2,91,-132,-67,28.299999,47.700001,979.070007
16/06/2023,18:11:49.208,0,21,1001,-5,-4,-3,87,-132,-90,28.299999,47.700001,979.070007
16/06/2023,18:11:49.217,-2,22,986,-5,-4,-4,87,-120,-93,28.299999,47.700001,979.070007
16/06/2023,18:11:49.226,-2,21,989,-4,-7,-4,87,-120,-93,28.299999,47.700001,979.070007
16/06/2023,18:11:49.235,-2,23,997,-5,-5,-4,93,-102,-88,28.299999,47.700001,979.070007
16/06/2023,18:11:49.245,-3,24,995,-5,-4,-4,90,-120,-93,28.299999,47.700001,979.070007
16/06/2023,18:11:49.255,-1,22,988,-4,-5,-4,90,-114,-61,28.299999,47.700001,979.070007
16/06/2023,18:11:49.264,-1,22,992,-4,-4,-3,90,-114,-61,28.299999,47.700001,979.070007
16/06/2023,18:11:49.273,-1,21,996,-5,-3,-3,97,-130,-91,28.299999,47.700001,979.070007
16/06/2023,18:11:49.283,-1,22,987,-4,-3,-4,103,-115,-91,28.299999,47.700001,979.070007
16/06/2023,18:11:49.291,-2,22,991,-4,-5,-4,93,-121,-81,28.299999,47.700001,979.070007
16/06/2023,18:11:49.304,-1,24,993,-4,-3,-3,84,-111,-82,28.299999,47.700001,979.070007
16/06/2023,18:11:49.311,0,20,990,-4,-4,-4,72,-123,-100,28.299999,47.700001,979.070007
16/06/2023,18:11:49.320,0,18,990,-4,-6,-4,72,-123,-100,28.299999,47.700001,979.070007
16/06/2023,18:11:49.329,-3,22,989,-4,-4,-3,100,-117,-105,28.299999,47.700001,979.070007
16/06/2023,18:11:49.339,-4,21,990,-4,-4,-4,85,-123,-81,28.299999,47.700001,979.070007
16/06/2023,18:11:49.348,-2,21,993,-5,-4,-4,79,-133,-93,28.299999,47.700001,979.070007
16/06/2023,18:11:49.358,0,23,991,-5,-5,-4,85,-118,-91,28.299999,47.700001,979.070007
16/06/2023,18:11:49.367,1,23,990,-4,-4,-4,102,-117,-103,28.299999,47.700001,979.070007
16/06/2023,18:11:49.376,1,23,994,-5,-4,-4,103,-132,-90,28.299999,47.700001,979.070007
16/06/2023,18:11:49.386,-1,22,996,-5,-4,-4,97,-138,-90,28.299999,47.700001,979.070007
16/06/2023,18:11:49.395,0,20,990,-5,-4,-4,94,-123,-97,28.299999,47.700001,979.070007
16/06/2023,18:11:49.405,0,23,990,-4,-5,-3,109,-126,-87,28.299999,47.700001,979.070007
16/06/2023,18:11:49.413,-1,23,993,-4,-5,-3,109,-126,-87,28.299999,47.700001,979.070007
16/06/2023,18:11:49.423,1,22,991,-4,-4,-3,90,-108,-88,28.299999,47.700001,979.070007
16/06/2023,18:11:49.433,0,22,991,-5,-3,-4,103,-106,-81,28.299999,47.700001,979.070007
16/06/2023,18:11:49.442,-1,21,994,-4,-4,-4,103,-115,-94,28.299999,47.700001,979.070007
16/06/2023,18:11:49.451,0,21,992,-4,-5,-3,102,-124,-112,28.299999,47.700001,979.070007
16/06/2023,18:11:49.461,0,21,989,-5,-3,-3,115,-129,-96,28.299999,47.700001,979.070007
16/06/2023,18:11:49.470,-1,21,991,-4,-3,-3,91,-139,-90,28.299999,47.700001,979.070007
16/06/2023,18:11:49.479,-1,23,992,-5,-2,-3,97,-126,-87,28.299999,47.700001,979.070007
16/06/2023,18:11:49.489,-1,23,992,-5,-4,-4,90,-121,-81,28.299999,47.700001,979.070007
16/06/2023,18:11:49.498,0,24,990,-4,-4,-3,114,-115,-69,28.299999,47.700001,979.070007
16/06/2023,18:11:49.507,-1,19,989,-4,-5,-3,114,-115,-69,28.299999,47.700001,979.070007
16/06/2023,18:11:49.516,0,19,993,-5,-4,-3,93,-139,-105,28.299999,47.700001,979.070007
16/06/2023,18:11:49.526,1,21,994,-4,-4,-3,112,-118,-88,28.299999,47.700001,979.070007
16/06/2023,18:11:49.536,0,20,991,-4,-5,-3,100,-126,-93,28.299999,47.700001,979.070007
16/06/2023,18:11:49.545,0,24,991,-4,-4,-3,99,-117,-87,28.299999,47.700001,979.070007
16/06/2023,18:11:49.554,0,25,994,-5,-4,-4,97,-135,-76,28.299999,47.700001,979.070007
16/06/2023,18:11:49.564,0,21,995,-4,-3,-3,102,-126,-82,28.299999,47.700001,979.070007
16/06/2023,18:11:49.573,-1,20,992,-5,-4,-3,103,-124,-84,28.299999,47.700001,979.070007
16/06/2023,18:11:49.583,-3,21,993,-5,-7,-3,84,-120,-64,28.299999,47.700001,979.070007
16/06/2023,18:11:49.592,-2,22,994,-4,-5,-4,96,-127,-87,28.299999,47.700001,979.070007
16/06/2023,18:11:49.601,-1,21,992,-5,-4,-4,96,-127,-87,28.299999,47.700001,979.070007
16/06/2023,18:11:49.610,0,24,992,-5,-4,-4,97,-126,-100,28.299999,47.700001,979.070007
16/06/2023,18:11:49.620,-2,25,993,-5,-4,-4,82,-133,-93,28.299999,47.700001,979.070007
16/06/2023,18:11:49.629,0,22,994,-4,-4,-5,114,-129,-88,28.299999,47.700001,979.070007
16/06/2023,18:11:49.639,1,22,992,-5,-4,-3,102,-112,-85,28.299999,47.700001,979.070007
16/06/2023,18:11:49.648,-3,20,991,-5,-5,-4,78,-124,-96,28.299999,47.700001,979.070007
16/06/2023,18:11:49.657,-2,21,991,-4,-5,-4,88,-139,-90,28.299999,47.700001,979.070007
16/06/2023,18:11:49.667,0,20,992,-5,-4,-4,105,-121,-91,28.299999,47.700001,979.070007
16/06/2023,18:11:49.676,0,21,992,-5,-4,-3,100,-121,-73,28.299999,47.700001,979.070007
16/06/2023,18:11:49.686,2,22,991,-4,-4,-2,99,-135,-103,28.299999,47.700001,979.070007
16/06/2023,18:11:49.694,0,22,991,-4,-4,-3,99,-135,-103,28.299999,47.700001,979.070007
16/06/2023,18:11:49.704,0,23,992,-4,-4,-4,94,-123,-76,28.299999,47.700001,979.070007
16/06/2023,18:11:49.714,0,21,994,-4,-5,-4,96,-127,-84,28.299999,47.700001,979.070007
16/06/2023,18:11:49.723,-1,22,994,-4,-4,-3,91,-135,-91,28.299999,47.700001,979.070007
16/06/2023,18:11:49.732,-2,23,994,-5,-4,-3,81,-123,-90,28.299999,47.700001,979.070007
16/06/2023,18:11:49.742,-2,21,992,-4,-4,-2,93,-141,-81,28.299999,47.700001,979.070007
16/06/2023,18:11:49.751,0,21,991,-5,-5,-3,90,-126,-85,28.299999,47.700001,979.070007
16/06/2023,18:11:49.761,1,23,991,-5,-5,-3,94,-129,-94,28.299999,47.700001,979.070007
16/06/2023,18:11:49.770,1,25,990,-4,-4,-4,93,-112,-97,28.299999,47.700001,979.070007
16/06/2023,18:11:49.779,0,23,988,-3,-4,-3,99,-126,-91,28.299999,47.700001,979.070007
16/06/2023,18:11:49.788,0,19,992,-4,-6,-3,99,-126,-91,28.299999,47.700001,979.070007
16/06/2023,18:11:49.807,2,21,992,-4,-5,-3,99,-111,-108,28.299999,47.700001,979.070007
16/06/2023,18:11:49.817,-2,22,993,-5,-4,-3,91,-108,-97,28.299999,47.700001,979.070007
16/06/2023,18:11:49.826,-2,21,993,-4,-8,-4,96,-121,-76,28.299999,47.700001,979.070007
16/06/2023,18:11:49.835,-2,21,993,-5,-5,-4,79,-127,-100,28.299999,47.700001,979.070007
16/06/2023,18:11:49.845,-2,20,994,-4,-4,-4,91,-136,-112,28.299999,47.700001,979.070007
16/06/2023,18:11:49.854,-1,20,986,-4,-4,-3,106,-133,-102,28.299999,47.700001,979.070007
16/06/2023,18:11:49.864,-2,19,996,-3,-4,-2,99,-117,-85,28.299999,47.700001,979.070007
16/06/2023,18:11:49.873,-1,19,996,-4,-4,-3,103,-114,-75,28.299999,47.700001,979.070007
16/06/2023,18:11:49.882,0,22,985,-5,-4,-3,103,-114,-75,28.299999,47.700001,979.070007
16/06/2023,18:11:49.891,0,22,995,-5,-4,-4,94,-117,-106,28.299999,47.700001,979.070007
16/06/2023,18:11:49.901,0,21,997,-5,-4,-3,88,-109,-76,28.299999,47.700001,979.070007
16/06/2023,18:11:49.910,1,22,989,-5,-5,-3,105,-130,-88,28.299999,47.700001,979.070007
16/06/2023,18:11:49.920,0,21,991,-5,-3,-3,87,-112,-96,28.299999,47.700001,979.070007
16/06/2023,18:11:49.929,-2,20,996,-5,-3,-3,93,-129,-96,28.299999,47.700001,979.070007
16/06/2023,18:11:49.939,-2,20,990,-6,-3,-4,79,-126,-87,28.299999,47.700001,979.070007
16/06/2023,18:11:49.948,-2,21,990,-5,-4,-4,94,-126,-88,28.299999,47.700001,979.070007
16/06/2023,18:11:49.957,-1,22,993,-5,-3,-4,94,-136,-81,28.299999,47.700001,979.070007
16/06/2023,18:11:49.967,-1,23,989,-5,-4,-4,105,-127,-76,28.299999,47.700001,979.070007
16/06/2023,18:11:49.975,0,20,988,-4,-3,-4,105,-127,-76,28.299999,47.700001,979.070007
16/06/2023,18:11:49.985,1,22,993,-5,-3,-4,84,-118,-81,28.299999,47.700001,979.070007
16/06/2023,18:11:49.995,1,22,992,-5,-5,-4,93,-124,-87,28.299999,47.700001,979.070007
16/06/2023,18:11:50.004,0,21,991,-5,-6,-3,85,-124,-91,28.299999,47.700001,979.070007
16/06/2023,18:11:50.014,0,21,991,-4,-5,-2,93,-118,-93,28.299999,47.700001,979.070007
16/06/2023,18:11:50.023,-2,21,990,-4,-4,-2,99,-120,-93,28.299999,47.700001,979.070007
16/06/2023,18:11:50.032,-2,20,990,-5,-3,-3,99,-112,-88,28.299999,47.700001,979.070007
16/06/2023,18:11:50.042,-1,18,991,-5,-3,-4,96,-129,-100,28.299999,47.700001,979.070007
16/06/2023,18:11:50.051,0,19,992,-4,-4,-4,114,-112,-84,28.299999,47.700001,979.070007
16/06/2023,18:11:50.060,0,20,991,-4,-4,-3,102,-123,-84,28.299999,47.700001,979.070007
16/06/2023,18:11:50.069,-3,22,992,-5,-4,-4,102,-123,-84,28.299999,47.700001,979.070007
16/06/2023,18:11:50.078,-1,22,991,-5,-3,-4,105,-124,-114,28.299999,47.700001,979.070007
16/06/2023,18:11:50.088,-1,21,989,-5,-4,-4,81,-123,-97,28.299999,47.700001,979.070007
16/06/2023,18:11:50.098,-4,21,991,-5,-4,-4,90,-130,-90,28.299999,47.700001,979.070007
16/06/2023,18:11:50.107,-1,19,991,-5,-4,-4,118,-124,-96,28.299999,47.700001,979.070007
16/06/2023,18:11:50.117,0,20,991,-4,-4,-3,87,-121,-96,28.299999,47.700001,979.070007
16/06/2023,18:11:50.125,0,20,993,-4,-4,-3,90,-129,-99,28.299999,47.700001,979.070007
16/06/2023,18:11:50.135,0,18,994,-5,-4,-4,94,-115,-81,28.299999,47.700001,979.070007
16/06/2023,18:11:50.145,0,18,992,-4,-5,-4,106,-118,-82,28.299999,47.700001,979.070007
16/06/2023,18:11:50.153,0,20,992,-4,-3,-5,106,-118,-82,28.299999,47.700001,979.070007
16/06/2023,18:11:50.163,-3,20,992,-5,-4,-4,97,-117,-96,28.299999,47.700001,979.070007
16/06/2023,18:11:50.173,-1,21,993,-5,-4,-3,93,-114,-91,28.299999,47.700001,979.070007
16/06/2023,18:11:50.182,-1,21,993,-5,-4,-3,79,-121,-85,28.299999,47.700001,979.070007
16/06/2023,18:11:50.192,-2,21,992,-5,-4,-3,88,-123,-102,28.299999,47.700001,979.070007
16/06/2023,18:11:50.201,-3,22,991,-6,-5,-4,87,-124,-94,28.299999,47.700001,979.070007
16/06/2023,18:11:50.210,-3,20,990,-5,-4,-4,85,-115,-82,28.299999,47.700001,979.070007
16/06/2023,18:11:50.219,-2,20,990,-4,-4,-3,85,-115,-82,28.299999,47.500000,979.070007
16/06/2023,18:11:50.229,0,23,992,-4,-3,-5,108,-130,-84,28.299999,47.500000,979.049988
16/06/2023,18:11:50.238,1,22,993,-5,-4,-4,108,-130,-84,28.299999,47.500000,979.049988
16/06/2023,18:11:50.251,0,21,994,-4,-4,-3,90,-117,-90,28.299999,47.500000,979.049988
16/06/2023,18:11:50.257,0,21,991,-5,-6,-3,88,-127,-91,28.299999,47.500000,979.049988
16/06/2023,18:11:50.266,-1,21,989,-4,-5,-3,100,-126,-75,28.299999,47.500000,979.049988
16/06/2023,18:11:50.276,-2,23,990,-5,-3,-4,93,-123,-100,28.299999,47.500000,979.049988
16/06/2023,18:11:50.285,-3,22,990,-5,-3,-3,91,-136,-82,28.299999,47.500000,979.049988
16/06/2023,18:11:50.295,-2,22,992,-5,-4,-4,102,-106,-88,28.299999,47.500000,979.049988
16/06/2023,18:11:50.304,0,20,993,-4,-3,-4,94,-111,-93,28.299999,47.500000,979.049988
16/06/2023,18:11:50.313,1,20,990,-4,-3,-4,78,-123,-85,28.299999,47.500000,979.049988
16/06/2023,18:11:50.322,0,23,990,-4,-4,-4,78,-123,-85,28.299999,47.500000,979.049988
16/06/2023,18:11:50.331,-1,21,992,-4,-5,-3,94,-108,-79,28.299999,47.500000,979.049988
16/06/2023,18:11:50.341,0,21,992,-4,-4,-3,103,-118,-84,28.299999,47.500000,979.049988
16/06/2023,18:11:50.351,2,22,991,-4,-3,-4,93,-117,-93,28.299999,47.500000,979.049988
16/06/2023,18:11:50.360,0,21,991,-4,-3,-5,84,-106,-75,28.299999,47.500000,979.049988
16/06/2023,18:11:50.370,0,23,989,-4,-4,-3,93,-109,-72,28.299999,47.500000,979.049988
16/06/2023,18:11:50.379,-1,22,991,-5,-5,-4,88,-118,-87,28.299999,47.500000,979.049988
16/06/2023,18:11:50.388,-2,19,993,-6,-4,-4,94,-102,-100,28.299999,47.500000,979.049988
16/06/2023,18:11:50.398,-3,20,991,-4,-4,-3,115,-118,-96,28.299999,47.500000,979.049988
16/06/2023,18:11:50.407,-3,21,990,-4,-4,-3,93,-135,-93,28.299999,47.500000,979.049988
16/06/2023,18:11:50.416,-3,20,992,-5,-4,-3,93,-135,-93,28.299999,47.500000,979.049988
16/06/2023,18:11:50.425,-2,21,993,-5,-4,-4,99,-118,-75,28.299999,47.500000,979.049988
16/06/2023,18:11:50.435,-1,23,994,-4,-5,-4,90,-133,-85,28.299999,47.500000,979.049988
16/06/2023,18:11:50.444,-1,21,993,-4,-4,-3,94,-126,-82,28.299999,47.500000,979.049988
16/06/2023,18:11:50.454,-1,22,991,-4,-4,-3,109,-133,-99,28.299999,47.500000,979.049988
16/06/2023,18:11:50.463,0,22,991,-4,-4,-3,109,-124,-82,28.299999,47.500000,979.049988
16/06/2023,18:11:50.482,-2,20,992,-5,-2,-4,99,-120,-81,28.299999,47.500000,979.049988
16/06/2023,18:11:50.491,-1,22,992,-5,-4,-3,115,-127,-85,28.299999,47.500000,979.049988
16/06/2023,18:11:50.501,0,23,991,-5,-3,-3,85,-121,-100,28.299999,47.500000,979.049988
16/06/2023,18:11:50.509,0,23,991,-5,-4,-4,85,-121,-100,28.299999,47.500000,979.049988
16/06/2023,18:11:50.519,-1,22,988,-5,-4,-4,93,-117,-87,28.299999,47.500000,979.049988
16/06/2023,18:11:50.529,-3,25,991,-5,-5,-2,97,-117,-87,28.299999,47.500000,979.049988
16/06/2023,18:11:50.538,-2,24,993,-4,-4,-3,90,-111,-82,28.299999,47.500000,979.049988
16/06/2023,18:11:50.548,0,22,990,-5,-4,-3,91,-126,-88,28.299999,47.500000,979.049988
16/06/2023,18:11:50.557,0,21,994,-4,-5,-4,102,-129,-97,28.299999,47.500000,979.049988
16/06/2023,18:11:50.566,-2,21,993,-5,-5,-3,96,-112,-81,28.299999,47.500000,979.049988
16/06/2023,18:11:50.576,0,22,987,-4,-5,-3,79,-126,-99,28.299999,47.500000,979.049988
16/06/2023,18:11:50.585,0,22,992,-4,-5,-4,88,-130,-100,28.299999,47.500000,979.049988
16/06/2023,18:11:50.594,-1,22,994,-5,-6,-4,76,-123,-100,28.299999,47.500000,979.049988
16/06/2023,18:11:50.603,0,24,988,-5,-5,-2,76,-123,-100,28.299999,47.500000,979.049988
16/06/2023,18:11:50.613,0,22,993,-5,-4,-3,100,-132,-85,28.299999,47.500000,979.049988
16/06/2023,18:11:50.622,0,18,996,-6,-4,-4,85,-124,-91,28.299999,47.500000,979.049988
16/06/2023,18:11:50.632,-1,20,991,-5,-4,-4,93,-136,-81,28.299999,47.500000,979.049988
16/06/2023,18:11:50.641,-1,23,991,-3,-6,-3,93,-108,-85,28.299999,47.500000,979.049988
16/06/2023,18:11:50.651,-1,23,994,-4,-2,-4,97,-115,-96,28.299999,47.500000,979.049988
16/06/2023,18:11:50.660,-2,22,992,-5,-3,-3,100,-114,-81,28.299999,47.500000,979.049988
16/06/2023,18:11:50.669,-1,22,991,-5,-4,-4,105,-135,-85,28.299999,47.500000,979.049988
16/06/2023,18:11:50.679,-1,22,992,-4,-3,-4,96,-112,-109,28.299999,47.500000,979.049988
16/06/2023,18:11:50.688,-1,19,991,-4,-5,-3,91,-130,-96,28.299999,47.500000,979.049988
16/06/2023,18:11:50.697,0,18,992,-4,-3,-4,91,-130,-96,28.299999,47.500000,979.049988
16/06/2023,18:11:50.707,0,21,992,-4,-3,-3,79,-129,-81,28.299999,47.500000,979.049988
16/06/2023,18:11:50.716,0,22,992,-4,-4,-4,114,-121,-87,28.299999,47.500000,979.049988
16/06/2023,18:11:50.726,-1,18,995,-4,-4,-3,91,-97,-84,28.299999,47.500000,979.049988
16/06/2023,18:11:50.735,0,20,994,-4,-5,-3,96,-121,-81,28.299999,47.500000,979.049988
16/06/2023,18:11:50.744,0,22,992,-4,-4,-3,96,-115,-96,28.299999,47.500000,979.049988
16/06/2023,18:11:50.753,-3,23,991,-4,-4,-2,76,-115,-94,28.299999,47.500000,979.049988
16/06/2023,18:11:50.763,-3,25,991,-4,-4,-3,88,-114,-78,28.299999,47.500000,979.049988
16/06/2023,18:11:50.772,-3,23,993,-4,-3,-3,108,-123,-93,28.299999,47.500000,979.049988
16/06/2023,18:11:50.781,-3,20,993,-4,-3,-3,108,-123,-93,28.299999,47.500000,979.049988
16/06/2023,18:11:50.791,-1,20,991,-4,-4,-3,87,-127,-79,28.299999,47.500000,979.049988
16/06/2023,18:11:50.800,-2,23,991,-4,-4,-3,114,-124,-88,28.299999,47.500000,979.049988
16/06/2023,18:11:50.810,-2,23,991,-5,-4,-3,99,-120,-106,28.299999,47.500000,979.049988
16/06/2023,18:11:50.819,-2,23,990,-4,-4,-4,90,-120,-105,28.299999,47.500000,979.049988
16/06/2023,18:11:50.829,-1,21,991,-4,-5,-3,97,-127,-103,28.299999,47.500000,979.049988
16/06/2023,18:11:50.838,0,22,992,-4,-4,-4,102,-127,-94,28.299999,47.500000,979.049988
16/06/2023,18:11:50.847,0,23,994,-5,-3,-4,90,-129,-84,28.299999,47.500000,979.049988
16/06/2023,18:11:50.857,-1,22,994,-5,-5,-3,84,-141,-96,28.299999,47.500000,979.049988
16/06/2023,18:11:50.866,-1,22,994,-5,-4,-4,94,-123,-96,28.299999,47.500000,979.049988
16/06/2023,18:11:50.875,0,21,992,-4,-5,-3,94,-123,-96,28.299999,47.500000,979.049988
16/06/2023,18:11:50.884,0,21,991,-4,-4,-2,99,-124,-91,28.299999,47.500000,979.049988
16/06/2023,18:11:50.894,-1,21,990,-4,-5,-2,93,-135,-73,28.299999,47.500000,979.049988
16/06/2023,18:11:50.904,0,22,992,-4,-4,-4,91,-118,-69,28.299999,47.500000,979.049988
16/06/2023,18:11:50.913,1,22,992,-5,-4,-4,88,-118,-79,28.299999,47.500000,979.049988
16/06/2023,18:11:50.922,0,20,990,-4,-3,-5,90,-115,-82,28.299999,47.500000,979.049988
16/06/2023,18:11:50.932,0,20,991,-4,-3,-4,109,-106,-84,28.299999,47.500000,979.049988
16/06/2023,18:11:50.941,-2,21,993,-5,-3,-3,82,-126,-105,28.299999,47.500000,979.049988
16/06/2023,18:11:50.950,-4,24,992,-5,-3,-4,103,-127,-99,28.299999,47.500000,979.049988
16/06/2023,18:11:50.960,-2,25,992,-5,-3,-4,88,-121,-94,28.299999,47.500000,979.049988
16/06/2023,18:11:50.969,0,24,993,-4,-3,-3,88,-121,-94,28.299999,47.500000,979.049988
16/06/2023,18:11:50.978,0,22,993,-4,-1,-4,97,-132,-111,28.299999,47.500000,979.049988
16/06/2023,18:11:50.988,0,20,992,-5,-3,-4,94,-126,-82,28.299999,47.500000,979.049988
16/06/2023,18:11:50.997,-2,21,992,-5,-5,-4,105,-96,-100,28.299999,47.500000,979.049988
16/06/2023,18:11:51.007,-4,23,992,-5,-3,-3,90,-120,-99,28.299999,47.500000,979.049988
16/06/2023,18:11:51.016,-1,21,991,-4,-4,-4,93,-133,-93,28.299999,47.500000,979.049988
16/06/2023,18:11:51.025,0,20,993,-4,-4,-4,91,-138,-81,28.299999,47.500000,979.049988
16/06/2023,18:11:51.035,-1,20,993,-5,-4,-3,93,-120,-97,28.299999,47.500000,979.049988
16/06/2023,18:11:51.044,-2,21,991,-5,-4,-3,100,-127,-121,28.299999,47.500000,979.049988
16/06/2023,18:11:51.053,-2,23,991,-4,-4,-3,93,-126,-85,28.299999,47.500000,979.049988
16/06/2023,18:11:51.062,-1,22,992,-5,-4,-4,93,-126,-85,28.299999,47.500000,979.049988
16/06/2023,18:11:51.072,0,22,991,-4,-4,-4,108,-117,-87,28.299999,47.500000,979.049988
16/06/2023,18:11:51.082,-1,23,992,-4,-4,-3,88,-129,-96,28.299999,47.500000,979.049988
16/06/2023,18:11:51.091,-2,23,993,-5,-3,-3,103,-133,-96,28.299999,47.500000,979.049988
16/06/2023,18:11:51.100,-4,23,994,-5,-4,-3,79,-111,-66,28.299999,47.500000,979.049988
16/06/2023,18:11:51.110,-2,23,992,-4,-3,-4,97,-111,-76,28.299999,47.500000,979.049988
16/06/2023,18:11:51.119,-2,21,990,-5,-3,-3,94,-129,-91,28.299999,47.500000,979.049988
16/06/2023,18:11:51.128,-4,20,992,-4,-3,-4,84,-121,-85,28.299999,47.500000,979.049988
16/06/2023,18:11:51.138,-1,21,992,-4,-3,-4,103,-108,-97,28.299999,47.500000,979.049988
16/06/2023,18:11:51.156,0,22,990,-5,-4,-3,76,-111,-78,28.299999,47.500000,979.049988
16/06/2023,18:11:51.165,0,21,992,-4,-4,-2,100,-120,-96,28.299999,47.500000,979.049988
16/06/2023,18:11:51.175,-2,23,990,-4,-4,-3,75,-111,-97,28.299999,47.500000,979.049988
16/06/2023,18:11:51.185,-2,23,992,-5,-3,-4,97,-117,-96,28.299999,47.500000,979.049988
16/06/2023,18:11:51.194,-1,22,995,-5,-3,-4,97,-135,-88,28.299999,47.500000,979.049988
16/06/2023,18:11:51.203,-2,23,990,-5,-3,-2,67,-117,-94,28.299999,47.500000,979.049988
16/06/2023,18:11:51.213,-2,23,990,-4,-4,-3,81,-126,-105,28.299999,47.500000,979.049988
16/06/2023,18:11:51.222,0,23,994,-4,-5,-3,90,-136,-97,28.299999,47.500000,979.049988
16/06/2023,18:11:51.231,0,22,995,-5,-3,-3,105,-123,-91,28.299999,47.500000,979.049988
16/06/2023,18:11:51.241,0,22,989,-5,-3,-4,93,-121,-82,28.299999,47.500000,979.049988
16/06/2023,18:11:51.250,-1,22,993,-4,-6,-4,93,-121,-82,28.299999,47.500000,979.049988
16/06/2023,18:11:51.262,-3,20,995,-4,-5,-2,82,-112,-94,28.299999,47.500000,979.049988
16/06/2023,18:11:51.269,0,23,989,-4,-1,-3,75,-127,-69,28.299999,47.400002,979.010010
16/06/2023,18:11:51.278,0,24,993,-4,-2,-2,97,-126,-96,28.299999,47.400002,979.010010
16/06/2023,18:11:51.288,-4,21,995,-4,-3,-3,93,-120,-99,28.299999,47.400002,979.010010
16/06/2023,18:11:51.297,-4,21,990,-4,-5,-3,96,-126,-100,28.299999,47.400002,979.010010
16/06/2023,18:11:51.306,-2,23,991,-4,-6,-4,105,-135,-87,28.299999,47.400002,979.010010
16/06/2023,18:11:51.316,-1,22,993,-5,-3,-4,88,-133,-78,28.299999,47.400002,979.010010
16/06/2023,18:11:51.325,-2,23,989,-5,-5,-4,96,-123,-103,28.299999,47.400002,979.010010
16/06/2023,18:11:51.335,-3,25,991,-4,-4,-4,91,-120,-94,28.299999,47.400002,979.010010
16/06/2023,18:11:51.343,-1,25,994,-4,-3,-3,91,-120,-94,28.299999,47.400002,979.010010
16/06/2023,18:11:51.353,-1,23,992,-5,-4,-4,96,-114,-88,28.299999,47.400002,979.010010
16/06/2023,18:11:51.363,1,21,992,-5,-4,-5,94,-139,-97,28.299999,47.400002,979.010010
16/06/2023,18:11:51.372,-1,20,992,-5,-4,-5,100,-133,-96,28.299999,47.400002,979.010010
16/06/2023,18:11:51.381,-6,22,990,-5,-5,-4,97,-129,-112,28.299999,47.400002,979.010010
16/06/2023,18:11:51.391,-4,23,990,-6,-5,-4,105,-118,-102,28.299999,47.400002,979.010010
16/06/2023,18:11:51.400,-1,20,992,-5,-4,-4,100,-112,-99,28.299999,47.400002,979.010010
16/06/2023,18:11:51.409,0,19,992,-5,-3,-3,73,-126,-90,28.299999,47.400002,979.010010
16/06/2023,18:11:51.419,0,19,992,-5,-3,-4,100,-121,-99,28.299999,47.400002,979.010010
16/06/2023,18:11:51.428,-1,18,993,-4,-4,-3,106,-121,-88,28.299999,47.400002,979.010010
16/06/2023,18:11:51.437,-1,20,992,-5,-4,-4,106,-121,-88,28.299999,47.400002,979.010010
16/06/2023,18:11:51.446,0,21,991,-4,-4,-3,91,-120,-81,28.299999,47.400002,979.010010
16/06/2023,18:11:51.456,-2,22,992,-4,-5,-3,111,-121,-79,28.299999,47.400002,979.010010
16/06/2023,18:11:51.466,-2,22,992,-4,-4,-3,96,-132,-100,28.299999,47.400002,979.010010
16/06/2023,18:11:51.475,-1,20,992,-4,-4,-3,85,-121,-75,28.299999,47.400002,979.010010
16/06/2023,18:11:51.484,0,20,991,-4,-4,-3,93,-105,-70,28.299999,47.400002,979.010010
16/06/2023,18:11:51.494,0,21,990,-4,-4,-4,85,-120,-81,28.299999,47.400002,979.010010
16/06/2023,18:11:51.503,-1,23,991,-4,-3,-3,93,-114,-96,28.299999,47.400002,979.010010
16/06/2023,18:11:51.513,-2,23,991,-5,-3,-3,91,-123,-90,28.299999,47.400002,979.010010
16/06/2023,18:11:51.522,-1,22,991,-4,-4,-4,109,-129,-76,28.299999,47.400002,979.010010
16/06/2023,18:11:51.531,3,24,992,-4,-5,-3,109,-129,-76,28.299999,47.400002,979.010010
16/06/2023,18:11:51.540,3,24,992,-4,-4,-4,94,-106,-93,28.299999,47.400002,979.010010
16/06/2023,18:11:51.550,0,20,992,-5,-4,-4,102,-135,-85,28.299999,47.400002,979.010010
16/06/2023,18:11:51.559,0,20,992,-4,-5,-4,105,-136,-100,28.299999,47.400002,979.010010
16/06/2023,18:11:51.569,-1,20,991,-4,-4,-3,93,-108,-87,28.299999,47.400002,979.010010
16/06/2023,18:11:51.578,-2,20,992,-4,-4,-3,91,-109,-88,28.299999,47.400002,979.010010
16/06/2023,18:11:51.587,-1,21,991,-5,-3,-4,103,-130,-90,28.299999,47.400002,979.010010
16/06/2023,18:11:51.597,0,22,990,-6,-6,-4,96,-112,-93,28.299999,47.400002,979.010010
16/06/2023,18:11:51.606,0,21,992,-5,-6,-3,93,-111,-81,28.299999,47.400002,979.010010
16/06/2023,18:11:51.615,-1,20,991,-4,-4,-2,93,-111,-81,28.299999,47.400002,979.010010
16/06/2023,18:11:51.624,0,20,990,-4,-4,-4,103,-109,-88,28.299999,47.400002,979.010010
16/06/2023,18:11:51.634,0,19,992,-5,-4,-4,121,-127,-96,28.299999,47.400002,979.010010
16/06/2023,18:11:51.644,-1,19,990,-5,-5,-4,79,-118,-70,28.299999,47.400002,979.010010
16/06/2023,18:11:51.653,-4,20,990,-4,-3,-4,100,-111,-94,28.299999,47.400002,979.010010
16/06/2023,18:11:51.662,-3,20,993,-5,-3,-4,102,-133,-72,28.299999,47.400002,979.010010
16/06/2023,18:11:51.672,0,21,993,-5,-3,-3,67,-132,-84,28.299999,47.400002,979.010010
16/06/2023,18:11:51.681,0,21,990,-5,-6,-3,97,-126,-87,28.299999,47.400002,979.010010
16/06/2023,18:11:51.691,-1,23,990,-4,-5,-4,79,-121,-112,28.299999,47.400002,979.010010
16/06/2023,18:11:51.703,-1,24,990,-4,-6,-3,88,-135,-70,28.299999,47.400002,979.010010
16/06/2023,18:11:51.709,0,23,991,-5,-2,-4,88,-135,-70,28.299999,47.400002,979.010010
16/06/2023,18:11:51.718,0,24,993,-5,-2,-3,84,-106,-70,28.299999,47.400002,979.010010
16/06/2023,18:11:51.728,0,22,991,-5,-4,-3,87,-123,-91,28.299999,47.400002,979.010010
16/06/2023,18:11:51.737,0,22,991,-4,-5,-3,100,-114,-82,28.299999,47.400002,979.010010
16/06/2023,18:11:51.747,-2,22,992,-4,-4,-3,99,-127,-94,28.299999,47.400002,979.010010
16/06/2023,18:11:51.759,0,21,993,-4,-4,-3,114,-120,-88,28.299999,47.400002,979.010010
16/06/2023,18:11:51.765,0,23,992,-5,-2,-4,91,-126,-100,28.299999,47.400002,979.010010
16/06/2023,18:11:51.775,-2,21,992,-5,-4,-4,99,-132,-75,28.299999,47.400002,979.010010
16/06/2023,18:11:51.784,-2,20,991,-4,-4,-3,96,-111,-87,28.299999,47.400002,979.010010
16/06/2023,18:11:51.794,-2,21,991,-5,-4,-3,96,-124,-90,28.299999,47.400002,979.010010
16/06/2023,18:11:51.802,-1,23,990,-4,-4,-3,96,-124,-90,28.299999,47.400002,979.010010
16/06/2023,18:11:51.812,0,23,991,-4,-2,-3,96,-124,-90,28.299999,47.400002,979.010010
16/06/2023,18:11:51.822,0,22,991,-5,-3,-3,79,-115,-88,28.299999,47.400002,979.010010
16/06/2023,18:11:51.831,0,20,991,-5,-3,-3,97,-120,-76,28.299999,47.400002,979.010010
16/06/2023,18:11:51.840,-1,20,991,-5,-3,-4,97,-123,-97,28.299999,47.400002,979.010010
16/06/2023,18:11:51.850,-1,20,990,-4,-3,-4,87,-120,-90,28.299999,47.400002,979.010010
16/06/2023,18:11:51.859,0,23,990,-5,-3,-4,84,-124,-81,28.299999,47.400002,979.010010
16/06/2023,18:11:51.869,0,27,992,-4,-4,-3,90,-118,-84,28.299999,47.400002,979.010010
16/06/2023,18:11:51.878,-1,25,990,-4,-5,-3,100,-129,-87,28.299999,47.400002,979.010010
16/06/2023,18:11:51.887,0,21,992,-4,-6,-4,88,-126,-90,28.299999,47.400002,979.010010
16/06/2023,18:11:51.896,0,21,992,-4,-4,-4,88,-126,-90,28.299999,47.400002,979.010010
16/06/2023,18:11:51.905,-1,23,993,-4,-3,-3,91,-126,-105,28.299999,47.400002,979.010010
16/06/2023,18:11:51.915,-3,24,991,-5,-3,-3,97,-124,-88,28.299999,47.400002,979.010010
16/06/2023,18:11:51.925,0,22,992,-4,-4,-3,111,-102,-91,28.299999,47.400002,979.010010
16/06/2023,18:11:51.934,1,20,992,-4,-5,-3,87,-123,-91,28.299999,47.400002,979.010010
16/06/2023,18:11:51.944,0,23,990,-4,-5,-4,103,-129,-93,28.299999,47.400002,979.010010
16/06/2023,18:11:51.953,-1,25,991,-4,-3,-3,102,-118,-106,28.299999,47.400002,979.010010
16/06/2023,18:11:51.962,0,24,992,-4,-4,-3,90,-142,-97,28.299999,47.400002,979.010010
16/06/2023,18:11:51.972,-1,22,992,-5,-3,-4,96,-132,-84,28.299999,47.400002,979.010010
16/06/2023,18:11:51.981,0,20,992,-5,-3,-4,99,-111,-99,28.299999,47.400002,979.010010
16/06/2023,18:11:51.990,0,20,991,-5,-5,-4,99,-111,-99,28.299999,47.400002,979.010010
16/06/2023,18:11:51.999,0,21,991,-5,-4,-4,96,-121,-73,28.299999,47.400002,979.010010
16/06/2023,18:11:52.009,0,20,991,-4,-4,-4,90,-139,-85,28.299999,47.400002,979.010010
16/06/2023,18:11:52.018,0,20,991,-4,-5,-3,100,-114,-100,28.299999,47.400002,979.010010
16/06/2023,18:11:52.028,-2,22,991,-5,-6,-3,96,-118,-97,28.299999,47.400002,979.010010
