dd/mm/yyyy,hh:mm:ss.ms,accX[mg],accY[mg],accZ[mg],gyroX[mdps],gyroY[mdps],gyroZ[mdps],magX[mG],magY[mG],magZ[mG],T[degC],rH[%],Press[hPa],
01/01/2000,00:26:39.003,-960,-122,-27,-5,34,-32,601,43,414,25.500000,55.299999,981.460022
01/01/2000,00:26:39.004,-960,-122,-27,-5,34,-32,601,43,414,25.500000,55.299999,981.460022
01/01/2000,00:26:39.004,-960,-122,-27,-5,34,-32,601,43,414,25.500000,55.299999,981.460022
01/01/2000,00:26:39.005,-960,-122,-27,-5,34,-32,601,43,414,25.500000,55.299999,981.460022
01/01/2000,00:26:39.009,-960,-122,-27,-5,34,-32,601,43,414,25.500000,55.299999,981.460022
01/01/2000,00:26:39.009,-960,-122,-27,-5,34,-32,601,43,414,25.500000,55.299999,981.460022
01/01/2000,00:26:39.010,-960,-122,-27,-5,34,-32,601,43,414,25.500000,55.299999,981.460022
01/01/2000,00:26:39.010,-960,-122,-27,-5,34,-32,601,43,414,25.500000,55.299999,981.460022
01/01/2000,00:26:39.011,-960,-122,-27,-5,34,-32,601,43,414,25.500000,55.299999,981.460022
01/01/2000,00:26:39.011,-960,-122,-27,-5,34,-32,601,43,414,25.500000,55.299999,981.460022
01/01/2000,00:26:39.015,-960,-122,-27,-5,34,-32,601,43,414,25.500000,55.299999,981.460022
01/01/2000,00:26:39.015,-960,-122,-27,-5,34,-32,601,43,414,25.500000,55.299999,981.460022
01/01/2000,00:26:39.016,-960,-122,-27,-5,34,-32,601,43,414,25.500000,55.299999,981.460022
01/01/2000,00:26:39.016,-960,-122,-27,-5,34,-32,601,43,414,25.500000,55.299999,981.460022
01/01/2000,00:26:39.017,-960,-122,-27,-5,34,-32,601,43,414,25.500000,55.299999,981.460022
01/01/2000,00:26:39.017,-960,-122,-27,-5,34,-32,601,43,414,25.500000,55.299999,981.460022
01/01/2000,00:26:39.021,-960,-122,-27,-5,34,-32,601,43,414,25.500000,55.299999,981.460022
01/01/2000,00:26:39.021,-960,-122,-27,-5,34,-32,601,43,414,25.500000,55.299999,981.460022
01/01/2000,00:26:39.022,-960,-122,-27,-5,34,-32,601,43,414,25.500000,55.299999,981.460022
01/01/2000,00:26:39.023,-960,-122,-27,-5,34,-32,601,43,414,25.500000,55.299999,981.460022
01/01/2000,00:26:39.023,-960,-122,-27,-5,34,-32,601,43,414,25.500000,55.299999,981.460022
01/01/2000,00:26:39.027,-960,-122,-27,-5,34,-32,601,43,414,25.500000,55.299999,981.460022
01/01/2000,00:26:39.028,-994,-120,0,-5,34,-32,601,43,414,25.500000,55.299999,981.460022
01/01/2000,00:26:39.028,-994,-120,0,-80,92,-57,597,54,433,25.500000,55.299999,981.460022
01/01/2000,00:26:39.038,-1000,-131,-3,-44,86,-54,625,64,408,25.500000,55.299999,981.460022
01/01/2000,00:26:39.048,-1000,-137,-10,-3,76,-49,618,45,418,25.500000,55.299999,981.460022
01/01/2000,00:26:39.057,-996,-140,-15,20,66,-44,621,48,412,25.500000,55.299999,981.460022
01/01/2000,00:26:39.066,-994,-143,-14,21,59,-41,622,58,430,25.500000,55.299999,981.460022
01/01/2000,00:26:39.075,-993,-140,-6,5,59,-39,622,58,430,25.500000,55.299999,981.460022
01/01/2000,00:26:39.085,-993,-133,1,-20,58,-36,624,42,415,25.500000,55.299999,981.460022
01/01/2000,00:26:39.095,-994,-129,6,-39,52,-34,610,48,423,25.500000,55.299999,981.460022
01/01/2000,00:26:39.104,-995,-130,2,-33,38,-29,607,63,415,25.500000,55.299999,981.460022
01/01/2000,00:26:39.113,-992,-131,-3,-4,17,-22,616,42,429,25.500000,55.299999,981.460022
01/01/2000,00:26:39.123,-984,-130,-7,29,-7,-12,616,43,396,25.500000,55.299999,981.460022
01/01/2000,00:26:39.132,-972,-133,-13,58,-25,-7,612,51,427,25.500000,55.299999,981.460022
01/01/2000,00:26:39.141,-966,-127,-20,58,-25,-7,609,61,418,25.500000,55.299999,981.460022
01/01/2000,00:26:39.151,-961,-115,-24,74,-34,-6,619,55,424,25.500000,55.299999,981.460022
01/01/2000,00:26:39.160,-959,-112,-24,73,-38,-10,625,55,427,25.500000,55.299999,981.460022
01/01/2000,00:26:39.169,-961,-114,-22,63,-32,-18,625,55,427,25.500000,55.299999,981.460022
01/01/2000,00:26:39.178,-965,-124,-20,45,-21,-28,610,54,414,25.500000,55.299999,981.460022
01/01/2000,00:26:39.188,-969,-142,-20,22,-8,-37,619,63,430,25.500000,55.299999,981.460022
01/01/2000,00:26:39.198,-972,-161,-23,-2,5,-43,619,61,436,25.500000,55.299999,981.460022
01/01/2000,00:26:39.207,-979,-176,-31,-21,18,-45,615,43,418,25.500000,55.299999,981.460022
01/01/2000,00:26:39.216,-985,-184,-40,-30,30,-41,616,52,423,25.500000,55.299999,981.460022
01/01/2000,00:26:39.226,-985,-184,-40,-24,39,-33,627,61,427,25.500000,55.299999,981.460022
01/01/2000,00:26:39.235,-986,-187,-43,-9,44,-21,616,66,418,25.500000,55.299999,981.460022
01/01/2000,00:26:39.244,-984,-184,-40,4,42,-7,615,54,429,25.500000,55.299999,981.460022
01/01/2000,00:26:39.254,-980,-173,-37,9,40,4,618,63,420,25.500000,55.299999,981.460022
01/01/2000,00:26:39.263,-976,-153,-30,1,38,10,618,63,420,25.500000,55.299999,981.460022
01/01/2000,00:26:39.272,-974,-131,-24,-16,31,9,622,49,426,25.500000,55.299999,981.460022
01/01/2000,00:26:39.282,-977,-115,-20,-37,23,6,612,72,430,25.500000,55.299999,981.460022
01/01/2000,00:26:39.291,-980,-107,-14,-53,18,0,627,61,430,25.500000,55.299999,981.460022
01/01/2000,00:26:39.301,-988,-102,-12,-61,14,-6,619,57,417,25.500000,55.299999,981.460022
01/01/2000,00:26:39.310,-998,-103,-12,-63,9,-13,604,58,420,25.500000,55.299999,981.460022
01/01/2000,00:26:39.319,-998,-108,-12,-54,-1,-16,615,45,420,25.500000,55.299999,981.460022
01/01/2000,00:26:39.329,-995,-116,-17,-34,-10,-17,610,66,427,25.500000,55.299999,981.460022
01/01/2000,00:26:39.338,-990,-127,-25,-6,-27,-14,610,37,427,25.500000,55.299999,981.460022
01/01/2000,00:26:39.347,-981,-135,-35,23,-38,-11,628,57,415,25.500000,55.299999,981.460022
01/01/2000,00:26:39.356,-974,-139,-43,45,-37,-7,628,57,415,25.500000,55.299999,981.460022
01/01/2000,00:26:39.366,-968,-142,-48,49,-27,-4,619,64,424,25.500000,55.299999,981.460022
01/01/2000,00:26:39.376,-962,-140,-43,30,-9,-4,597,51,421,25.500000,55.299999,981.460022
01/01/2000,00:26:39.385,-960,-134,-31,-8,10,-7,616,43,424,25.500000,55.299999,981.460022
01/01/2000,00:26:39.394,-961,-130,-24,-39,26,-12,621,49,424,25.500000,55.299999,981.460022
01/01/2000,00:26:39.404,-967,-132,-19,-51,35,-14,625,67,420,25.500000,55.299999,981.460022
01/01/2000,00:26:39.413,-973,-132,-11,-51,37,-14,616,57,418,25.500000,55.299999,981.460022
01/01/2000,00:26:39.422,-980,-129,-3,-44,33,-13,607,64,420,25.500000,55.299999,981.460022
01/01/2000,00:26:39.435,-989,-127,0,-37,29,-15,616,69,432,25.500000,55.299999,981.460022
01/01/2000,00:26:39.441,-998,-123,-2,-33,29,-19,597,49,436,25.500000,55.299999,981.460022
01/01/2000,00:26:39.450,-1001,-122,-4,-30,25,-25,597,49,436,25.500000,55.299999,981.460022
01/01/2000,00:26:39.459,-992,-125,-11,-25,5,-27,616,60,427,25.500000,55.299999,981.460022
01/01/2000,00:26:39.469,-976,-132,-25,-6,-21,-25,616,63,421,25.500000,55.299999,981.460022
01/01/2000,00:26:39.479,-963,-138,-44,12,-31,-23,615,57,408,25.500000,55.299999,981.460022
01/01/2000,00:26:39.488,-958,-131,-60,11,-13,-21,610,57,448,25.500000,55.299999,981.460022
01/01/2000,00:26:39.497,-952,-120,-61,11,-13,-21,615,54,414,25.500000,55.299999,981.460022
01/01/2000,00:26:39.507,-945,-111,-53,-20,10,-25,621,60,427,25.500000,55.299999,981.460022
01/01/2000,00:26:39.516,-948,-99,-42,-58,33,-30,616,49,432,25.500000,55.299999,981.460022
01/01/2000,00:26:39.526,-962,-84,-21,-85,53,-34,619,55,417,25.500000,55.299999,981.460022
01/01/2000,00:26:39.535,-981,-72,8,-109,77,-43,627,45,415,25.500000,55.299999,981.460022
01/01/2000,00:26:39.544,-981,-73,55,-136,99,-53,627,45,415,25.500000,55.299999,981.460022
01/01/2000,00:26:39.553,-996,-73,55,-159,117,-63,591,48,414,25.500000,55.299999,981.460022
01/01/2000,00:26:39.563,-1011,-62,122,-169,120,-72,621,55,421,25.500000,55.299999,981.460022
01/01/2000,00:26:39.572,-1011,-62,122,-143,102,-77,616,57,430,25.500000,55.299999,981.460022
01/01/2000,00:26:39.582,-1026,-50,135,-99,72,-82,606,57,426,25.500000,55.299999,981.460022
01/01/2000,00:26:39.591,-1046,-35,116,-26,19,-85,621,52,430,25.500000,55.299999,981.460022
01/01/2000,00:26:39.600,-1057,-17,75,47,-40,-90,606,63,423,25.500000,55.299999,981.460022
01/01/2000,00:26:39.610,-1056,-4,50,92,-86,-103,607,55,433,25.500000,55.299999,981.460022
01/01/2000,00:26:39.619,-1049,2,41,101,-99,-128,621,60,429,25.500000,55.299999,981.460022
01/01/2000,00:26:39.629,-1040,0,46,87,-71,-174,612,60,421,25.500000,55.299999,981.460022
01/01/2000,00:26:39.637,-1040,7,67,57,-31,-207,612,60,421,25.500000,55.299999,981.460022
01/01/2000,00:26:39.647,-1041,25,86,24,-24,-222,598,67,438,25.500000,55.299999,981.460022
01/01/2000,00:26:39.657,-1015,61,36,64,-52,-201,598,67,438,25.500000,55.299999,981.460022
01/01/2000,00:26:39.666,-971,119,-66,229,-46,-164,589,64,426,25.500000,55.299999,981.460022
01/01/2000,00:26:39.675,-931,141,-69,328,5,-140,603,75,436,25.500000,55.299999,981.460022
01/01/2000,00:26:39.685,-885,113,25,296,34,-135,606,72,423,25.500000,55.299999,981.460022
01/01/2000,00:26:39.697,-834,72,59,267,14,-129,607,72,426,25.500000,55.299999,981.460022
01/01/2000,00:26:39.704,-802,35,18,301,-4,-120,603,76,429,25.500000,55.299999,981.460022
01/01/2000,00:26:39.713,-785,-21,6,296,13,-129,615,69,430,25.500000,55.299999,981.460022
01/01/2000,00:26:39.722,-792,-105,36,192,30,-139,597,70,417,25.500000,55.299999,981.460022
01/01/2000,00:26:39.731,-821,-178,43,38,43,-156,597,70,417,25.500000,55.299999,981.460022
01/01/2000,00:26:39.740,-872,-230,24,-116,64,-182,592,84,421,25.500000,55.299999,981.460022
01/01/2000,00:26:39.750,-943,-286,9,-261,79,-214,598,78,415,25.500000,55.299999,981.460022
01/01/2000,00:26:39.760,-1002,-328,-8,-346,130,-227,603,72,429,25.500000,55.299999,981.460022
01/01/2000,00:26:39.769,-1033,-331,-28,-333,192,-216,588,79,450,25.500000,55.299999,981.460022
01/01/2000,00:26:39.778,-1035,-246,-32,-329,228,-186,597,85,423,25.500000,55.299999,981.460022
01/01/2000,00:26:39.788,-1034,-62,-32,-453,262,-187,606,67,429,25.500000,55.299999,981.460022
01/01/2000,00:26:39.800,-1028,81,-59,-548,271,-219,613,81,453,25.500000,55.299999,981.460022
01/01/2000,00:26:39.807,-999,115,-90,-531,291,-215,601,84,451,25.500000,55.299999,981.460022
01/01/2000,00:26:39.815,-966,94,-98,-399,319,-173,601,84,451,25.500000,55.299999,981.460022
01/01/2000,00:26:39.825,-936,43,-94,-116,306,-138,607,82,463,25.500000,55.299999,981.460022
01/01/2000,00:26:39.835,-898,2,-79,285,202,-105,595,88,453,25.500000,55.299999,981.460022
01/01/2000,00:26:39.844,-872,-7,-52,285,202,-105,586,88,442,24.200001,54.900002,981.429993
01/01/2000,00:26:39.853,-881,-24,-13,628,81,-92,573,82,457,24.200001,54.900002,981.429993
01/01/2000,00:26:39.863,-925,-61,28,780,23,-110,594,100,429,24.200001,54.900002,981.429993
01/01/2000,00:26:39.872,-982,-108,40,763,0,-161,591,109,453,24.200001,54.900002,981.429993
01/01/2000,00:26:39.882,-1048,-160,-16,664,-33,-226,579,111,450,24.200001,54.900002,981.429993
01/01/2000,00:26:39.891,-1136,-223,-110,534,-73,-287,594,117,453,24.200001,54.900002,981.429993
01/01/2000,00:26:39.903,-1136,-223,-110,387,-88,-332,594,117,453,24.200001,54.900002,981.429993
01/01/2000,00:26:39.910,-1274,-414,-189,179,-106,-354,592,106,430,24.200001,54.900002,981.429993
01/01/2000,00:26:39.919,-1274,-414,-189,-82,-116,-333,586,106,433,24.200001,54.900002,981.429993
01/01/2000,00:26:39.928,-1258,-538,-158,-265,-88,-297,594,124,436,24.200001,54.900002,981.429993
01/01/2000,00:26:39.938,-1157,-654,-56,-212,-64,-245,583,112,442,24.200001,54.900002,981.429993
01/01/2000,00:26:39.947,-993,-679,82,-12,-87,-165,592,112,441,24.200001,54.900002,981.429993
01/01/2000,00:26:39.957,-877,-551,193,108,-106,-38,604,112,450,24.200001,54.900002,981.429993
01/01/2000,00:26:39.966,-843,-333,241,34,-70,42,595,111,445,24.200001,54.900002,981.429993
01/01/2000,00:26:39.975,-833,-173,244,-167,-51,67,589,102,438,24.200001,54.900002,981.429993
01/01/2000,00:26:39.984,-822,-112,193,-373,-8,75,589,102,438,24.200001,54.900002,981.429993
01/01/2000,00:26:39.993,-784,-95,88,-497,65,71,594,93,451,24.200001,54.900002,981.429993
01/01/2000,00:26:40.003,-729,-95,-9,-516,121,73,588,109,453,24.200001,54.900002,981.429993
01/01/2000,00:26:40.013,-704,-88,-96,-437,141,47,583,112,435,24.200001,54.900002,981.429993
01/01/2000,00:26:40.022,-737,-73,-177,-298,182,0,592,103,448,24.200001,54.900002,981.429993
01/01/2000,00:26:40.031,-798,-82,-236,-80,224,-26,594,117,456,24.200001,54.900002,981.429993
01/01/2000,00:26:40.041,-864,-84,-289,189,257,-21,598,118,447,24.200001,54.900002,981.429993
01/01/2000,00:26:40.050,-941,-57,-332,493,352,-4,583,108,453,24.200001,54.900002,981.429993
01/01/2000,00:26:40.060,-1005,-44,-308,755,493,9,574,112,459,24.200001,54.900002,981.429993
01/01/2000,00:26:40.068,-1043,-30,-228,902,656,28,574,112,459,24.200001,54.900002,981.429993
01/01/2000,00:26:40.078,-1044,4,-51,865,881,45,597,117,454,24.200001,54.900002,981.429993
01/01/2000,00:26:40.088,-1031,67,205,612,866,35,589,115,454,24.200001,54.900002,981.429993
01/01/2000,00:26:40.097,-1037,145,361,259,551,-33,582,129,453,24.200001,54.900002,981.429993
01/01/2000,00:26:40.106,-1049,164,293,56,164,-132,573,126,472,24.200001,54.900002,981.429993
01/01/2000,00:26:40.116,-1032,92,89,140,-76,-183,564,117,484,24.200001,54.900002,981.429993
01/01/2000,00:26:40.125,-988,-23,-95,441,-152,-185,582,124,487,24.200001,54.900002,981.429993
01/01/2000,00:26:40.135,-948,-137,-185,777,-104,-159,556,132,463,24.200001,54.900002,981.429993
01/01/2000,00:26:40.144,-930,-229,-165,923,-19,-142,577,135,453,24.200001,54.900002,981.429993
01/01/2000,00:26:40.153,-919,-306,-119,849,100,-146,573,126,447,24.200001,54.900002,981.429993
01/01/2000,00:26:40.162,-920,-363,-105,680,287,-150,573,126,447,24.200001,54.900002,981.429993
01/01/2000,00:26:40.171,-940,-373,-101,559,494,-145,579,138,462,24.200001,54.900002,981.429993
01/01/2000,00:26:40.181,-992,-326,-65,494,677,-118,588,157,466,24.200001,54.900002,981.429993
01/01/2000,00:26:40.191,-1081,-254,22,494,677,-118,571,126,468,24.200001,54.900002,981.429993
01/01/2000,00:26:40.200,-1163,-208,119,395,805,-102,553,138,468,24.200001,54.900002,981.429993
01/01/2000,00:26:40.209,-1224,-215,229,273,821,-84,559,153,489,24.200001,54.900002,981.429993
01/01/2000,00:26:40.219,-1242,-306,301,246,667,-73,552,144,487,24.200001,54.900002,981.429993
01/01/2000,00:26:40.228,-1222,-469,240,346,258,-80,565,141,487,24.200001,54.900002,981.429993
01/01/2000,00:26:40.238,-1200,-621,89,471,-146,-74,549,144,471,24.200001,54.900002,981.429993
01/01/2000,00:26:40.247,-1182,-705,-33,490,-394,-60,562,168,478,24.200001,54.900002,981.429993
01/01/2000,00:26:40.256,-1182,-705,-33,338,-403,-63,562,168,478,24.200001,54.900002,981.429993
01/01/2000,00:26:40.265,-1162,-723,-92,81,-199,-97,564,156,505,24.200001,54.900002,981.429993
01/01/2000,00:26:40.275,-1164,-676,-81,-133,14,-105,555,147,465,24.200001,54.900002,981.429993
01/01/2000,00:26:40.284,-1196,-580,-37,-247,96,-91,576,165,472,24.200001,54.900002,981.429993
01/01/2000,00:26:40.294,-1237,-498,-17,-312,111,-79,547,178,492,24.200001,54.900002,981.429993
01/01/2000,00:26:40.303,-1292,-471,-11,-404,159,-60,549,172,474,24.200001,54.900002,981.429993
01/01/2000,00:26:40.313,-1349,-480,13,-514,191,-22,552,166,480,24.200001,54.900002,981.429993
01/01/2000,00:26:40.322,-1392,-485,73,-605,129,19,562,147,496,24.200001,54.900002,981.429993
01/01/2000,00:26:40.331,-1426,-468,127,-671,6,76,570,157,469,24.200001,54.900002,981.429993
01/01/2000,00:26:40.341,-1464,-422,176,-706,-150,158,576,150,462,24.200001,54.900002,981.429993
01/01/2000,00:26:40.349,-1501,-352,221,-751,-428,256,576,150,462,24.200001,54.900002,981.429993
01/01/2000,00:26:40.359,-1504,-249,223,-800,-792,330,568,145,502,24.200001,54.900002,981.429993
01/01/2000,00:26:40.369,-1453,-157,176,-826,-1237,313,579,138,495,24.200001,54.900002,981.429993
01/01/2000,00:26:40.378,-1392,-122,47,-857,-1515,241,571,132,486,24.200001,54.900002,981.429993
01/01/2000,00:26:40.387,-1306,-99,-59,-907,-1338,276,580,132,474,24.200001,54.900002,981.429993
01/01/2000,00:26:40.397,-1196,26,8,-951,-969,373,588,123,453,24.200001,54.900002,981.429993
01/01/2000,00:26:40.409,-1063,230,204,-860,-1003,344,586,121,468,24.200001,54.900002,981.429993
01/01/2000,00:26:40.416,-943,379,301,-839,-1313,298,583,121,468,24.200001,54.900002,981.429993
01/01/2000,00:26:40.425,-929,465,95,-1036,-1142,247,592,102,448,24.200001,54.900002,981.429993
01/01/2000,00:26:40.434,-944,513,-202,-1084,-511,143,597,100,441,24.200001,54.900002,981.429993
01/01/2000,00:26:40.443,-930,508,-328,-942,57,79,597,100,441,24.200001,54.900002,981.429993
01/01/2000,00:26:40.452,-999,483,-355,-655,188,95,586,96,442,24.200001,54.900002,981.429993
01/01/2000,00:26:40.462,-1114,461,-383,-351,-82,-4,591,114,457,24.200001,54.900002,981.429993
01/01/2000,00:26:40.472,-1117,353,-375,10,-499,-81,591,103,457,24.200001,54.900002,981.429993
01/01/2000,00:26:40.481,-1147,101,-166,412,-1221,156,604,97,447,24.200001,54.900002,981.429993
01/01/2000,00:26:40.491,-1279,-156,50,984,-2024,584,600,87,438,24.200001,54.900002,981.429993
01/01/2000,00:26:40.500,-1437,-286,106,1444,-2307,888,619,93,408,24.200001,54.900002,981.429993
01/01/2000,00:26:40.509,-1539,-355,154,1498,-2139,792,612,103,403,24.200001,54.900002,981.429993
01/01/2000,00:26:40.519,-1368,-447,172,1498,-2139,792,631,82,388,24.200001,54.900002,981.429993
01/01/2000,00:26:40.528,-1035,-407,75,1224,-1772,674,619,85,358,24.200001,54.900002,981.429993
01/01/2000,00:26:40.537,-828,-100,-40,915,-1522,822,619,85,358,24.200001,54.900002,981.429993
01/01/2000,00:26:40.546,-710,170,-30,678,-1291,850,625,81,367,24.200001,54.900002,981.429993
01/01/2000,00:26:40.559,-566,222,39,408,-1180,660,646,76,345,24.200001,54.900002,981.429993
01/01/2000,00:26:40.565,-422,171,89,233,-1170,571,631,64,343,24.200001,54.900002,981.429993
01/01/2000,00:26:40.575,-331,86,113,84,-1078,579,636,84,325,24.200001,54.900002,981.429993
01/01/2000,00:26:40.584,-288,4,101,-42,-937,588,649,63,307,24.200001,54.900002,981.429993
01/01/2000,00:26:40.594,-260,-65,71,-150,-816,553,651,51,328,24.200001,54.900002,981.429993
01/01/2000,00:26:40.603,-253,-118,40,-209,-730,507,649,49,306,24.200001,54.900002,981.429993
01/01/2000,00:26:40.612,-253,-118,40,-256,-651,477,648,43,300,24.200001,54.900002,981.429993
01/01/2000,00:26:40.622,-259,-142,15,-282,-571,441,643,40,295,24.200001,54.900002,981.429993
01/01/2000,00:26:40.630,-263,-141,0,-294,-482,395,643,40,295,24.200001,54.900002,981.429993
01/01/2000,00:26:40.640,-267,-124,-9,-287,-390,327,666,27,304,24.200001,54.900002,981.429993
01/01/2000,00:26:40.650,-271,-94,-11,-306,-297,265,636,34,292,24.200001,54.900002,981.429993
01/01/2000,00:26:40.663,-287,-54,-23,-337,-206,186,640,30,289,24.200001,54.900002,981.429993
01/01/2000,00:26:40.669,-311,-11,-50,-338,-79,72,639,24,315,24.200001,54.900002,981.429993
01/01/2000,00:26:40.678,-345,30,-65,-293,103,-70,636,25,279,24.200001,54.900002,981.429993
01/01/2000,00:26:40.687,-421,89,-40,-227,322,-271,637,19,292,24.200001,54.900002,981.429993
01/01/2000,00:26:40.697,-527,137,62,-165,537,-538,655,39,285,24.200001,54.900002,981.429993
01/01/2000,00:26:40.706,-605,90,275,-297,712,-737,646,36,295,24.200001,54.900002,981.429993
01/01/2000,00:26:40.715,-686,-7,518,-612,805,-769,649,55,319,24.200001,54.900002,981.429993
01/01/2000,00:26:40.724,-870,-80,785,-923,735,-703,649,55,319,24.200001,54.900002,981.429993
01/01/2000,00:26:40.734,-1164,-231,1069,-978,456,-539,639,51,307,24.200001,54.900002,981.429993
01/01/2000,00:26:40.743,-1533,-659,1270,-508,319,-142,642,48,319,24.200001,54.900002,981.429993
01/01/2000,00:26:40.753,-1922,-1244,1035,399,0,657,660,51,337,24.200001,54.900002,981.429993
01/01/2000,00:26:40.762,-2263,-1352,572,877,481,1093,631,60,324,24.200001,54.900002,981.429993
01/01/2000,00:26:40.772,-2286,-1192,692,786,741,893,654,43,319,24.200001,54.900002,981.429993
01/01/2000,00:26:40.781,-1958,-1064,1065,566,480,912,636,33,337,24.200001,54.900002,981.429993
01/01/2000,00:26:40.790,-1572,-623,1032,226,-24,1038,636,40,334,24.200001,54.900002,981.429993
01/01/2000,00:26:40.800,-1243,-166,626,-5,-603,903,654,27,352,24.200001,54.900002,981.429993
01/01/2000,00:26:40.808,-1000,80,101,-24,-698,499,649,24,348,24.200001,54.900002,981.429993
01/01/2000,00:26:40.818,-925,185,-158,25,-226,-94,649,24,348,24.200001,54.900002,981.429993
01/01/2000,00:26:40.827,-1042,187,-175,27,452,-748,649,24,328,24.200001,54.900002,981.429993
01/01/2000,00:26:40.837,-1064,280,-444,268,1223,-1220,645,25,340,24.200001,54.900002,981.429993
01/01/2000,00:26:40.847,-986,418,-703,680,1767,-1340,649,33,346,24.200001,54.900002,981.429993
01/01/2000,00:26:40.856,-969,403,-608,772,1786,-1241,646,48,355,24.200001,54.900002,981.429993
01/01/2000,00:26:40.865,-996,329,-475,210,1614,-1117,634,66,387,24.200001,54.900002,981.429993
01/01/2000,00:26:40.875,-1009,306,-388,-449,1361,-891,639,58,382,24.200001,54.900002,981.429993
01/01/2000,00:26:40.883,-923,322,-272,-689,800,-461,639,58,382,24.200001,54.799999,981.429993
01/01/2000,00:26:40.893,-811,377,-153,-689,800,-461,637,45,391,24.200001,54.799999,981.479980
01/01/2000,00:26:40.903,-723,448,-179,-595,115,-167,634,64,409,24.200001,54.799999,981.479980
01/01/2000,00:26:40.915,-724,474,-350,-422,-321,-145,634,64,409,24.200001,54.799999,981.479980
01/01/2000,00:26:40.921,-801,414,-382,-167,58,-246,646,79,388,24.200001,54.799999,981.479980
01/01/2000,00:26:40.931,-845,300,-277,171,578,-387,619,67,396,24.200001,54.799999,981.479980
01/01/2000,00:26:40.940,-845,165,-254,305,750,-607,624,61,397,24.200001,54.799999,981.479980
01/01/2000,00:26:40.950,-901,64,-307,68,674,-794,621,72,439,24.200001,54.799999,981.479980
01/01/2000,00:26:40.959,-901,64,-307,-309,569,-840,627,78,406,24.200001,54.799999,981.479980
01/01/2000,00:26:40.968,-1045,-61,-292,-696,244,-813,622,88,424,24.200001,54.799999,981.479980
01/01/2000,00:26:40.978,-1171,-196,-265,-948,13,-657,630,84,429,24.200001,54.799999,981.479980
01/01/2000,00:26:40.987,-1219,-321,-157,-674,-229,-491,607,96,415,24.200001,54.799999,981.479980
01/01/2000,00:26:40.996,-1148,-492,24,375,-212,-436,612,96,414,24.200001,54.799999,981.479980
01/01/2000,00:26:41.005,-1005,-531,211,1108,281,-333,612,96,414,24.200001,54.799999,981.479980
01/01/2000,00:26:41.015,-894,-432,398,988,754,-182,613,105,435,24.200001,54.799999,981.479980
01/01/2000,00:26:41.025,-838,-340,431,340,921,-19,598,114,451,24.200001,54.799999,981.479980
01/01/2000,00:26:41.034,-832,-280,356,-346,711,89,603,117,442,24.200001,54.799999,981.479980
01/01/2000,00:26:41.043,-801,-194,189,-870,429,106,603,103,442,24.200001,54.799999,981.479980
01/01/2000,00:26:41.053,-764,-101,10,-1142,324,50,595,108,436,24.200001,54.799999,981.479980
01/01/2000,00:26:41.062,-710,-59,-75,-1191,249,-15,598,99,457,24.200001,54.799999,981.479980
01/01/2000,00:26:41.071,-590,-65,-109,-963,172,37,589,99,468,24.200001,54.799999,981.479980
01/01/2000,00:26:41.081,-511,-95,-147,-695,130,196,609,72,463,24.200001,54.799999,981.479980
01/01/2000,00:26:41.090,-580,-23,-213,-378,108,209,604,82,448,24.200001,54.799999,981.479980
01/01/2000,00:26:41.099,-682,103,-415,322,-14,62,604,82,448,24.200001,54.799999,981.479980
01/01/2000,00:26:41.108,-720,216,-754,1731,-118,-80,613,81,468,24.200001,54.799999,981.479980
01/01/2000,00:26:41.118,-796,292,-883,2683,134,-112,594,79,475,24.200001,54.799999,981.479980
01/01/2000,00:26:41.128,-932,292,-660,2866,628,-123,594,93,453,24.200001,54.799999,981.479980
01/01/2000,00:26:41.137,-1110,464,5,2850,2340,-152,604,108,454,24.200001,54.799999,981.479980
01/01/2000,00:26:41.146,-1490,814,1871,508,2866,-250,586,112,442,24.200001,54.799999,981.479980
01/01/2000,00:26:41.156,-1857,797,2293,-577,647,-583,570,126,502,24.200001,54.799999,981.479980
01/01/2000,00:26:41.165,-1551,240,467,852,-1396,-538,559,132,495,24.200001,54.799999,981.479980
01/01/2000,00:26:41.174,-1101,-313,-447,1814,-1813,-314,570,121,487,24.200001,54.799999,981.479980
01/01/2000,00:26:41.183,-1022,-558,-421,1476,-1477,135,570,121,487,24.200001,54.799999,981.479980
01/01/2000,00:26:41.193,-1014,-611,-367,771,-1243,292,574,144,448,24.200001,54.799999,981.479980
01/01/2000,00:26:41.203,-944,-670,-413,426,-687,198,591,126,439,24.200001,54.799999,981.479980
01/01/2000,00:26:41.212,-890,-798,-399,519,40,53,597,147,453,24.200001,54.799999,981.479980
01/01/2000,00:26:41.221,-961,-961,-268,806,562,-14,577,151,447,24.200001,54.799999,981.479980
01/01/2000,00:26:41.231,-1082,-1138,-109,806,562,-14,585,147,454,24.200001,54.799999,981.479980
01/01/2000,00:26:41.240,-1183,-1256,119,1017,841,24,589,151,466,24.200001,54.799999,981.479980
01/01/2000,00:26:41.249,-1300,-1105,457,1071,906,86,573,133,478,24.200001,54.799999,981.479980
01/01/2000,00:26:41.259,-1452,-742,640,791,655,157,582,132,462,24.200001,54.799999,981.479980
01/01/2000,00:26:41.268,-1518,-571,557,271,210,134,565,150,456,24.200001,54.799999,981.479980
01/01/2000,00:26:41.277,-1401,-670,318,-180,-397,54,565,150,456,24.200001,54.799999,981.479980
01/01/2000,00:26:41.286,-1401,-670,318,-486,-836,49,583,157,456,24.200001,54.799999,981.479980
01/01/2000,00:26:41.296,-1052,-849,-17,-662,-831,113,576,132,453,24.200001,54.799999,981.479980
01/01/2000,00:26:41.306,-1052,-849,-17,-849,-846,189,585,129,444,24.200001,54.799999,981.479980
01/01/2000,00:26:41.318,-952,-806,-81,-1097,-899,307,577,130,445,24.200001,54.799999,981.479980
01/01/2000,00:26:41.324,-900,-757,-104,-1351,-875,453,588,127,448,24.200001,54.799999,981.479980
01/01/2000,00:26:41.334,-879,-673,-100,-1575,-772,638,589,121,442,24.200001,54.799999,981.479980
01/01/2000,00:26:41.343,-848,-512,-73,-1630,-506,794,595,124,435,24.200001,54.799999,981.479980
01/01/2000,00:26:41.352,-858,-279,238,-1325,-342,919,592,99,418,24.200001,54.799999,981.479980
01/01/2000,00:26:41.362,-1148,-33,562,-1143,-542,1129,601,90,426,24.200001,54.799999,981.479980
01/01/2000,00:26:41.371,-1491,127,462,-1427,-662,1202,601,90,426,24.200001,54.799999,981.479980
01/01/2000,00:26:41.380,-1481,130,108,-1693,-949,1138,619,64,432,24.200001,54.799999,981.479980
01/01/2000,00:26:41.390,-1296,93,-260,-1631,-1130,1124,607,73,432,24.200001,54.799999,981.479980
01/01/2000,00:26:41.399,-1204,194,-483,-1320,-772,1029,613,46,418,24.200001,54.799999,981.479980
01/01/2000,00:26:41.409,-1349,481,-531,-908,-108,642,615,31,420,24.200001,54.799999,981.479980
01/01/2000,00:26:41.418,-1711,883,-342,-564,361,-187,604,49,433,24.200001,54.799999,981.479980
01/01/2000,00:26:41.427,-2022,1149,7,-299,102,-883,612,45,421,24.200001,54.799999,981.479980
01/01/2000,00:26:41.437,-2167,1193,247,-50,-548,-1135,621,43,417,24.200001,54.799999,981.479980
01/01/2000,00:26:41.446,-1886,980,234,831,-1379,-736,601,57,417,24.200001,54.799999,981.479980
01/01/2000,00:26:41.456,-1384,737,133,2265,-2322,-63,612,82,399,24.200001,54.799999,981.479980
01/01/2000,00:26:41.474,-690,254,185,1762,-1135,147,627,70,385,24.200001,54.799999,981.479980
01/01/2000,00:26:41.484,-521,-56,170,70,-101,313,627,70,385,24.200001,54.799999,981.479980
01/01/2000,00:26:41.493,-507,-204,-4,-1031,184,565,633,69,363,24.200001,54.799999,981.479980
01/01/2000,00:26:41.502,-486,-331,-106,-1169,-119,745,636,73,361,24.200001,54.799999,981.479980
01/01/2000,00:26:41.512,-445,-431,-164,-681,-699,956,612,45,366,24.200001,54.799999,981.479980
01/01/2000,00:26:41.521,-469,-468,-195,109,-1034,1182,634,46,346,24.200001,54.799999,981.479980
01/01/2000,00:26:41.530,-516,-411,-33,469,-1095,1145,615,33,336,24.200001,54.799999,981.479980
01/01/2000,00:26:41.540,-464,-321,116,272,-994,961,628,24,337,24.200001,54.799999,981.479980
01/01/2000,00:26:41.549,-353,-278,168,-211,-870,787,630,27,331,24.200001,54.799999,981.479980
01/01/2000,00:26:41.558,-268,-271,143,-679,-737,699,630,27,331,24.200001,54.799999,981.479980
01/01/2000,00:26:41.567,-238,-276,95,-947,-581,681,633,13,325,24.200001,54.799999,981.479980
01/01/2000,00:26:41.577,-281,-279,43,-947,-581,681,622,-3,304,24.200001,54.799999,981.479980
01/01/2000,00:26:41.587,-364,-283,2,-1036,-423,669,634,-3,319,24.200001,54.799999,981.479980
01/01/2000,00:26:41.596,-441,-287,-13,-1009,-311,608,640,13,318,24.200001,54.799999,981.479980
01/01/2000,00:26:41.605,-496,-271,-35,-983,-246,545,642,-4,330,24.200001,54.799999,981.479980
01/01/2000,00:26:41.615,-490,-259,-78,-992,-220,424,630,-24,312,24.200001,54.799999,981.479980
01/01/2000,00:26:41.627,-459,-244,-131,-1012,-139,239,642,-22,315,24.200001,54.799999,981.479980
01/01/2000,00:26:41.634,-481,-203,-155,-1023,52,5,630,-13,307,24.200001,54.799999,981.479980
01/01/2000,00:26:41.642,-481,-203,-155,-950,371,-298,630,-13,307,24.200001,54.799999,981.479980
01/01/2000,00:26:41.652,-560,-166,-74,-793,765,-582,631,-15,304,24.200001,54.799999,981.479980
01/01/2000,00:26:41.662,-668,-111,142,-670,1048,-744,637,-6,331,24.200001,54.799999,981.479980
01/01/2000,00:26:41.671,-796,-5,402,-649,1035,-803,624,10,340,24.200001,54.799999,981.479980
01/01/2000,00:26:41.680,-960,102,564,-676,874,-820,610,10,375,24.200001,54.799999,981.479980
01/01/2000,00:26:41.690,-1195,88,600,-544,855,-775,639,9,354,24.200001,54.799999,981.479980
01/01/2000,00:26:41.699,-1600,-228,745,-278,580,-506,619,15,349,24.200001,54.799999,981.479980
01/01/2000,00:26:41.708,-2135,-551,1002,-110,-146,-118,621,7,340,24.200001,54.799999,981.479980
01/01/2000,00:26:41.718,-2451,-533,1227,-332,250,-40,622,7,366,24.200001,54.799999,981.479980
01/01/2000,00:26:41.727,-2257,-437,1449,-641,655,86,603,7,373,24.200001,54.799999,981.479980
01/01/2000,00:26:41.736,-1772,-363,1420,-206,174,778,603,7,373,24.200001,54.799999,981.479980
01/01/2000,00:26:41.745,-1362,-193,1169,458,-618,1537,625,16,366,24.200001,54.799999,981.479980
01/01/2000,00:26:41.755,-977,18,786,748,-1077,1611,625,-4,336,24.200001,54.799999,981.479980
01/01/2000,00:26:41.765,-556,169,183,736,-838,1037,622,0,337,24.200001,54.799999,981.479980
01/01/2000,00:26:41.774,-302,278,-275,697,41,250,621,-12,328,24.200001,54.799999,981.479980
01/01/2000,00:26:41.783,-323,371,-329,748,758,-515,633,-24,355,24.200001,54.799999,981.479980
01/01/2000,00:26:41.793,-633,448,-455,847,1488,-1316,618,-27,333,24.200001,54.799999,981.479980
01/01/2000,00:26:41.802,-976,520,-742,1148,2546,-1937,640,-1,349,24.200001,54.799999,981.479980
01/01/2000,00:26:41.812,-1201,540,-776,1357,2858,-2126,621,-3,373,24.200001,54.799999,981.479980
01/01/2000,00:26:41.821,-1468,475,-613,1171,2285,-1959,597,33,397,24.200001,54.799999,981.479980
01/01/2000,00:26:41.830,-1730,402,-525,574,1267,-1448,597,33,397,24.200001,54.799999,981.479980
01/01/2000,00:26:41.839,-1816,397,-599,-65,286,-849,594,52,447,24.200001,54.799999,981.479980
01/01/2000,00:26:41.849,-1583,397,-719,-289,-195,-563,601,52,441,24.200001,54.799999,981.479980
01/01/2000,00:26:41.858,-1128,291,-712,-176,-34,-442,597,64,405,24.200001,54.799999,981.479980
01/01/2000,00:26:41.868,-733,102,-498,41,154,-261,616,52,429,24.200001,54.799999,981.479980
01/01/2000,00:26:41.877,-533,-43,-243,251,86,-57,592,66,444,24.200001,54.799999,981.479980
01/01/2000,00:26:41.886,-515,-134,-71,185,41,-30,597,70,415,24.200001,54.799999,981.479980
01/01/2000,00:26:41.896,-623,-255,75,-209,-16,-190,585,63,415,24.200001,54.799999,981.479980
01/01/2000,00:26:41.905,-781,-329,81,-209,-16,-190,589,64,424,24.200001,54.799999,981.479980
01/01/2000,00:26:41.915,-936,-334,-12,-507,-47,-487,594,73,418,24.200001,54.799999,981.479980
01/01/2000,00:26:41.923,-1016,-320,-81,-653,-105,-745,594,73,418,24.200001,54.799999,981.479980
01/01/2000,00:26:41.933,-1029,-271,-111,-529,-208,-752,589,88,430,24.200001,55.000000,981.359985
01/01/2000,00:26:41.943,-1058,-195,-32,-395,84,-589,589,88,430,24.200001,55.000000,981.359985
01/01/2000,00:26:41.952,-1052,-114,120,-326,682,-429,583,82,426,24.200001,55.000000,981.359985
01/01/2000,00:26:41.961,-962,-77,265,-153,914,-366,606,82,433,24.200001,55.000000,981.359985
01/01/2000,00:26:41.971,-853,-69,277,-27,735,-280,579,94,436,24.200001,55.000000,981.359985
01/01/2000,00:26:41.980,-786,-67,210,-42,628,-172,583,93,451,24.200001,55.000000,981.359985
01/01/2000,00:26:41.990,-774,-69,127,16,584,-81,588,100,454,24.200001,55.000000,981.359985
01/01/2000,00:26:41.999,-774,-69,127,147,458,-39,562,88,465,24.200001,55.000000,981.359985
01/01/2000,00:26:42.008,-764,-73,0,208,320,-53,579,99,457,24.200001,55.000000,981.359985
01/01/2000,00:26:42.017,-749,-69,-115,155,194,-56,579,99,457,24.200001,55.000000,981.359985
01/01/2000,00:26:42.026,-720,-36,-204,77,26,-67,568,87,459,24.200001,55.000000,981.359985
01/01/2000,00:26:42.036,-649,5,-303,194,-46,-60,571,87,439,24.200001,55.000000,981.359985
01/01/2000,00:26:42.046,-651,40,-364,572,-62,-77,561,97,447,24.200001,55.000000,981.359985
01/01/2000,00:26:42.055,-700,61,-470,1221,-53,-107,562,88,462,24.200001,55.000000,981.359985
01/01/2000,00:26:42.065,-741,89,-638,2236,133,-159,565,100,465,24.200001,55.000000,981.359985
01/01/2000,00:26:42.074,-781,105,-617,2779,379,-185,585,123,459,24.200001,55.000000,981.359985
01/01/2000,00:26:42.083,-767,74,-371,2866,548,-160,549,130,456,24.200001,55.000000,981.359985
01/01/2000,00:26:42.093,-611,213,266,2173,2296,153,570,117,447,24.200001,55.000000,981.359985
01/01/2000,00:26:42.101,-1189,579,1673,603,2866,214,570,117,447,24.200001,55.000000,981.359985
01/01/2000,00:26:42.111,-1667,317,1663,728,594,-178,534,132,487,24.200001,55.000000,981.359985
01/01/2000,00:26:42.121,-1239,-236,272,1782,-1346,-6,541,126,504,24.200001,55.000000,981.359985
01/01/2000,00:26:42.130,-966,-358,-208,2099,-1983,44,537,127,477,24.200001,55.000000,981.359985
01/01/2000,00:26:42.139,-910,-441,-235,1572,-1829,28,553,153,465,24.200001,55.000000,981.359985
01/01/2000,00:26:42.149,-1019,-548,-290,798,-1271,31,546,156,448,24.200001,55.000000,981.359985
01/01/2000,00:26:42.158,-1190,-699,-343,179,-468,46,549,157,438,24.200001,55.000000,981.359985
01/01/2000,00:26:42.168,-1352,-898,-379,7,552,30,550,141,453,24.200001,55.000000,981.359985
01/01/2000,00:26:42.177,-1548,-1133,-310,362,1682,-21,565,154,432,24.200001,55.000000,981.359985
01/01/2000,00:26:42.186,-1749,-1347,93,889,2098,-110,531,154,471,24.200001,55.000000,981.359985
01/01/2000,00:26:42.195,-1756,-1300,864,1043,1022,-108,531,154,471,24.200001,55.000000,981.359985
01/01/2000,00:26:42.204,-1636,-959,1189,487,-586,60,538,175,463,24.200001,55.000000,981.359985
01/01/2000,00:26:42.214,-1444,-710,715,-42,-1214,41,544,163,463,24.200001,55.000000,981.359985
01/01/2000,00:26:42.224,-1250,-725,251,-367,-1196,-27,550,154,463,24.200001,55.000000,981.359985
01/01/2000,00:26:42.233,-1107,-784,45,-695,-1145,-27,547,151,451,24.200001,55.000000,981.359985
01/01/2000,00:26:42.243,-987,-781,-35,-1028,-1026,71,546,157,448,24.200001,55.000000,981.359985
01/01/2000,00:26:42.252,-961,-734,-32,-1423,-987,175,555,154,447,24.200001,55.000000,981.359985
01/01/2000,00:26:42.261,-945,-647,-49,-1890,-991,254,567,159,438,24.200001,55.000000,981.359985
01/01/2000,00:26:42.271,-914,-560,-113,-1890,-991,254,559,145,436,24.200001,55.000000,981.359985
01/01/2000,00:26:42.280,-927,-454,-178,-2318,-859,351,568,156,450,24.200001,55.000000,981.359985
01/01/2000,00:26:42.289,-977,-298,-209,-2567,-595,471,568,156,450,24.200001,55.000000,981.359985
01/01/2000,00:26:42.298,-1071,-112,-76,-2500,-205,568,562,129,424,24.200001,55.000000,981.359985
01/01/2000,00:26:42.308,-1233,60,179,-2007,140,648,568,133,427,24.200001,55.000000,981.359985
01/01/2000,00:26:42.317,-1279,188,162,-1498,-158,835,582,127,460,24.200001,55.000000,981.359985
01/01/2000,00:26:42.327,-1163,251,-133,-1310,-794,964,576,100,453,24.200001,55.000000,981.359985
01/01/2000,00:26:42.336,-1096,264,-388,-1226,-1117,970,573,97,444,24.200001,55.000000,981.359985
01/01/2000,00:26:42.346,-1096,264,-388,-1057,-939,991,583,66,447,24.200001,55.000000,981.359985
01/01/2000,00:26:42.355,-1281,397,-503,-723,-429,905,585,73,433,24.200001,55.000000,981.359985
01/01/2000,00:26:42.364,-1709,681,-385,-171,-280,563,577,60,436,24.200001,55.000000,981.359985
01/01/2000,00:26:42.374,-2000,907,-151,509,-827,204,598,60,423,24.200001,55.000000,981.359985
01/01/2000,00:26:42.382,-2031,970,3,1047,-1131,70,598,60,423,24.200001,55.000000,981.359985
01/01/2000,00:26:42.392,-1991,906,106,1547,-973,-65,594,78,405,24.200001,55.000000,981.359985
01/01/2000,00:26:42.402,-1649,658,279,2157,-1297,-81,589,70,402,24.200001,55.000000,981.359985
01/01/2000,00:26:42.411,-1219,467,267,2634,-1693,25,607,61,397,24.200001,55.000000,981.359985
01/01/2000,00:26:42.421,-997,412,113,2604,-1423,-31,585,79,379,24.200001,55.000000,981.359985
01/01/2000,00:26:42.430,-797,279,29,1952,-799,33,595,73,381,24.200001,55.000000,981.359985
01/01/2000,00:26:42.439,-692,178,-75,893,-148,159,595,85,376,24.200001,55.000000,981.359985
01/01/2000,00:26:42.449,-549,10,-125,-382,293,182,594,76,358,24.200001,55.000000,981.359985
01/01/2000,00:26:42.458,-378,-234,-116,-1411,463,373,598,81,366,24.200001,55.000000,981.359985
01/01/2000,00:26:42.467,-376,-399,30,-1736,-129,681,592,96,381,24.200001,55.000000,981.359985
01/01/2000,00:26:42.476,-443,-501,35,-1407,-963,936,592,96,381,24.200001,55.000000,981.359985
01/01/2000,00:26:42.486,-515,-541,-100,-724,-1434,1137,607,58,397,24.200001,55.000000,981.359985
01/01/2000,00:26:42.495,-578,-538,-86,-217,-1424,1240,592,55,369,24.200001,55.000000,981.359985
01/01/2000,00:26:42.505,-572,-511,19,-81,-1175,1157,600,52,357,24.200001,55.000000,981.359985
01/01/2000,00:26:42.514,-475,-458,144,-298,-948,929,607,21,343,24.200001,55.000000,981.359985
01/01/2000,00:26:42.524,-358,-376,188,-767,-743,750,588,24,346,24.200001,55.000000,981.359985
01/01/2000,00:26:42.533,-316,-261,133,-1177,-567,605,600,12,363,24.200001,55.000000,981.359985
01/01/2000,00:26:42.542,-309,-182,49,-1378,-490,482,613,22,334,24.200001,55.000000,981.359985
01/01/2000,00:26:42.552,-284,-149,-28,-1449,-470,400,601,3,334,24.200001,55.000000,981.359985
01/01/2000,00:26:42.560,-238,-110,-122,-1426,-373,271,601,3,334,24.200001,55.000000,981.359985
01/01/2000,00:26:42.570,-191,-72,-214,-1321,-86,64,601,15,336,24.200001,55.000000,981.359985
01/01/2000,00:26:42.583,-206,-40,-251,-1167,337,-193,601,13,333,24.200001,55.000000,981.359985
01/01/2000,00:26:42.589,-293,-2,-226,-986,790,-483,604,24,346,24.200001,55.000000,981.359985
01/01/2000,00:26:42.599,-385,8,-133,-794,1237,-704,612,16,340,24.200001,55.000000,981.359985
01/01/2000,00:26:42.608,-472,-1,56,-695,1545,-746,604,19,348,24.200001,55.000000,981.359985
01/01/2000,00:26:42.617,-598,28,338,-695,1545,-746,597,24,375,24.200001,55.000000,981.359985
01/01/2000,00:26:42.627,-788,36,657,-728,1526,-657,589,25,390,24.200001,55.000000,981.359985
01/01/2000,00:26:42.636,-1114,-172,936,-753,1061,-512,573,33,387,24.200001,55.000000,981.359985
01/01/2000,00:26:42.645,-1682,-630,854,-444,403,-290,580,15,382,24.200001,55.000000,981.359985
01/01/2000,00:26:42.654,-2382,-894,539,219,296,212,580,15,382,24.200001,55.000000,981.359985
01/01/2000,00:26:42.664,-2767,-986,701,571,676,865,595,28,402,24.200001,55.000000,981.359985
01/01/2000,00:26:42.673,-2543,-1138,1166,378,978,950,582,13,412,24.200001,55.000000,981.359985
01/01/2000,00:26:42.683,-2033,-848,1385,225,749,1181,574,7,432,24.200001,55.000000,981.359985
01/01/2000,00:26:42.692,-2033,-848,1385,64,-94,1773,571,-18,427,24.200001,55.000000,981.359985
01/01/2000,00:26:42.702,-1484,-231,1247,-136,-1431,1834,574,-6,411,24.200001,55.000000,981.359985
01/01/2000,00:26:42.711,-900,146,618,-165,-2082,1401,585,-21,391,24.200001,55.000000,981.359985
01/01/2000,00:26:42.720,-429,330,-134,178,-1487,684,583,-55,394,24.200001,55.000000,981.359985
01/01/2000,00:26:42.730,-126,408,-384,365,-228,-94,577,-42,411,24.200001,55.000000,981.359985
01/01/2000,00:26:42.739,-311,384,-324,6,1222,-913,577,-28,420,24.200001,55.000000,981.359985
01/01/2000,00:26:42.748,-805,406,-665,34,2548,-1971,577,-28,420,24.200001,55.000000,981.359985
01/01/2000,00:26:42.757,-1210,418,-883,663,2866,-2615,582,-19,459,24.200001,55.000000,981.359985
01/01/2000,00:26:42.767,-1650,349,-624,1115,2661,-2671,549,1,498,24.200001,55.000000,981.359985
01/01/2000,00:26:42.777,-1992,303,-518,1127,763,-2378,529,22,498,24.200001,55.000000,981.359985
01/01/2000,00:26:42.786,-2074,334,-635,533,-711,-1547,526,33,490,24.200001,55.000000,981.359985
01/01/2000,00:26:42.795,-1793,390,-757,-165,-818,-779,522,40,502,24.200001,55.000000,981.359985
01/01/2000,00:26:42.805,-1320,460,-662,-420,-378,-296,520,40,505,24.200001,55.000000,981.359985
01/01/2000,00:26:42.814,-916,505,-505,-349,-56,-119,525,21,505,24.200001,55.000000,981.359985
01/01/2000,00:26:42.823,-583,503,-437,-36,147,-74,520,34,501,24.200001,55.000000,981.359985
01/01/2000,00:26:42.833,-372,498,-258,287,63,-72,522,43,514,24.200001,55.000000,981.359985
01/01/2000,00:26:42.842,-330,462,-114,256,-16,-219,522,43,514,24.200001,55.000000,981.359985
01/01/2000,00:26:42.851,-493,351,-138,-142,278,-442,525,48,529,24.200001,55.000000,981.359985
01/01/2000,00:26:42.861,-770,153,-141,-573,400,-501,517,33,534,24.200001,55.000000,981.359985
01/01/2000,00:26:42.870,-1035,-45,-110,-834,161,-289,519,48,552,24.200001,55.000000,981.359985
01/01/2000,00:26:42.880,-1261,-183,-88,-665,-152,-249,513,21,540,24.200001,55.000000,981.359985
01/01/2000,00:26:42.889,-1316,-305,-159,73,43,-427,502,39,544,24.200001,55.000000,981.359985
01/01/2000,00:26:42.898,-1187,-435,-154,1035,782,-474,499,45,531,24.200001,55.000000,981.359985
01/01/2000,00:26:42.908,-1044,-482,53,1466,1228,-311,514,40,540,24.200001,55.000000,981.359985
01/01/2000,00:26:42.917,-972,-414,224,1425,1168,-129,486,45,559,24.200001,55.000000,981.359985
01/01/2000,00:26:42.926,-924,-338,222,1404,905,-19,481,61,562,24.200001,55.000000,981.359985
01/01/2000,00:26:42.935,-875,-315,144,1336,821,20,481,61,562,24.200001,55.000000,981.359985
01/01/2000,00:26:42.945,-861,-294,154,913,771,18,466,46,592,24.200001,55.000000,981.359985
01/01/2000,00:26:42.955,-833,-206,118,317,536,-25,468,66,570,24.200001,55.000000,981.359985
01/01/2000,00:26:42.964,-708,-165,32,317,536,-25,465,51,594,24.200001,55.000000,981.359985
01/01/2000,00:26:42.973,-555,-184,28,-94,187,56,459,57,604,24.200001,54.900002,981.380005
01/01/2000,00:26:42.983,-464,-160,-7,-381,-133,182,459,57,604,24.200001,54.900002,981.380005
01/01/2000,00:26:42.992,-413,-127,-68,-606,-176,206,453,28,600,24.200001,54.900002,981.380005
01/01/2000,00:26:43.001,-394,-140,-144,-760,114,74,451,31,597,24.200001,54.900002,981.380005
01/01/2000,00:26:43.011,-475,-128,-255,-747,490,-45,444,33,607,24.200001,54.900002,981.380005
01/01/2000,00:26:43.020,-475,-128,-255,-334,781,-147,444,33,607,24.200001,54.900002,981.380005
01/01/2000,00:26:43.029,-593,-8,-400,528,1152,-155,436,18,628,24.200001,54.900002,981.380005
01/01/2000,00:26:43.039,-698,92,-347,1584,1882,-73,436,24,633,24.200001,54.900002,981.380005
01/01/2000,00:26:43.048,-897,162,14,2270,2592,-1,424,34,618,24.200001,54.900002,981.380005
01/01/2000,00:26:43.058,-1260,366,696,2362,2401,-51,393,45,637,24.200001,54.900002,981.380005
01/01/2000,00:26:43.067,-1464,450,1038,1934,763,-138,391,55,637,24.200001,54.900002,981.380005
01/01/2000,00:26:43.076,-1400,300,490,1565,-419,-225,384,66,640,24.200001,54.900002,981.380005
01/01/2000,00:26:43.089,-1328,70,-115,1430,-601,-415,393,81,643,24.200001,54.900002,981.380005
01/01/2000,00:26:43.095,-1256,-248,-239,1221,-435,-515,396,79,643,24.200001,54.900002,981.380005
01/01/2000,00:26:43.104,-1188,-554,-151,867,-337,-435,396,79,643,24.200001,54.900002,981.380005
01/01/2000,00:26:43.113,-1160,-809,-82,604,-48,-328,388,75,633,24.200001,54.900002,981.380005
01/01/2000,00:26:43.123,-1194,-1048,27,559,444,-252,402,76,640,24.200001,54.900002,981.380005
01/01/2000,00:26:43.133,-1306,-1264,236,679,537,-125,388,76,634,24.200001,54.900002,981.380005
01/01/2000,00:26:43.142,-1467,-1390,413,628,44,29,381,70,642,24.200001,54.900002,981.380005
01/01/2000,00:26:43.151,-1433,-1286,422,214,-433,84,366,73,651,24.200001,54.900002,981.380005
01/01/2000,00:26:43.161,-1252,-888,294,-317,-782,228,390,46,646,24.200001,54.900002,981.380005
01/01/2000,00:26:43.170,-1186,-539,90,-630,-855,292,394,36,640,24.200001,54.900002,981.380005
01/01/2000,00:26:43.179,-1195,-485,-48,-755,-724,272,391,34,633,24.200001,54.900002,981.380005
01/01/2000,00:26:43.189,-1158,-509,-94,-821,-653,223,409,34,636,24.200001,54.900002,981.380005
01/01/2000,00:26:43.198,-1021,-483,-109,-875,-723,216,409,34,636,24.200001,54.900002,981.380005
01/01/2000,00:26:43.207,-850,-439,-87,-967,-836,254,436,7,636,24.200001,54.900002,981.380005
01/01/2000,00:26:43.217,-753,-384,-61,-1089,-888,327,420,-3,627,24.200001,54.900002,981.380005
01/01/2000,00:26:43.226,-734,-315,-45,-1212,-876,405,445,-19,609,24.200001,54.900002,981.380005
01/01/2000,00:26:43.239,-762,-226,-27,-1320,-741,476,441,-42,616,24.200001,54.900002,981.380005
01/01/2000,00:26:43.245,-925,-111,87,-1439,-421,586,441,-49,594,24.200001,54.900002,981.380005
01/01/2000,00:26:43.254,-1123,10,212,-1649,-401,663,468,-54,580,24.200001,54.900002,981.380005
01/01/2000,00:26:43.264,-1165,92,127,-1868,-817,632,462,-58,573,24.200001,54.900002,981.380005
01/01/2000,00:26:43.273,-1147,96,-112,-2062,-1046,648,469,-84,555,24.200001,54.900002,981.380005
01/01/2000,00:26:43.282,-1275,146,-278,-2212,-868,631,486,-102,538,24.200001,54.900002,981.380005
01/01/2000,00:26:43.291,-1618,358,-238,-2138,-770,446,486,-102,538,24.200001,54.900002,981.380005
01/01/2000,00:26:43.301,-1977,698,-172,-1621,-1103,144,493,-115,523,24.200001,54.900002,981.380005
01/01/2000,00:26:43.311,-2140,1003,-235,-1621,-1103,144,507,-132,513,24.200001,54.900002,981.380005
01/01/2000,00:26:43.320,-2065,1102,-191,-714,-1238,-101,502,-124,481,24.200001,54.900002,981.380005
01/01/2000,00:26:43.329,-1824,923,-41,357,-975,-228,529,-118,478,24.200001,54.900002,981.380005
01/01/2000,00:26:43.339,-1503,585,81,1490,-920,-210,508,-91,483,24.200001,54.900002,981.380005
01/01/2000,00:26:43.348,-1211,430,92,2569,-1364,-3,525,-93,456,24.200001,54.900002,981.380005
01/01/2000,00:26:43.357,-1031,450,-34,2858,-1559,156,541,-106,459,24.200001,54.900002,981.380005
01/01/2000,00:26:43.367,-929,411,-81,2866,-1024,209,537,-69,444,24.200001,54.900002,981.380005
01/01/2000,00:26:43.376,-833,283,-59,2772,-300,263,558,-73,444,24.200001,54.900002,981.380005
01/01/2000,00:26:43.385,-833,283,-59,1541,343,278,558,-73,444,24.200001,54.900002,981.380005
01/01/2000,00:26:43.394,-737,85,-16,-246,596,233,559,-79,438,24.200001,54.900002,981.380005
01/01/2000,00:26:43.404,-658,-127,19,-1455,29,249,550,-73,456,24.200001,54.900002,981.380005
01/01/2000,00:26:43.414,-608,-285,-13,-1797,-658,365,538,-85,444,24.200001,54.900002,981.380005
01/01/2000,00:26:43.423,-564,-450,-48,-1430,-1276,612,565,-88,420,24.200001,54.900002,981.380005
01/01/2000,00:26:43.432,-573,-624,-32,-724,-1571,1067,571,-75,400,24.200001,54.900002,981.380005
01/01/2000,00:26:43.442,-656,-680,-16,-16,-1442,1472,565,-96,400,24.200001,54.900002,981.380005
01/01/2000,00:26:43.451,-732,-601,36,277,-892,1454,562,-75,388,24.200001,54.900002,981.380005
01/01/2000,00:26:43.460,-707,-502,173,37,-284,1074,571,-106,376,24.200001,54.900002,981.380005
01/01/2000,00:26:43.470,-591,-422,261,-518,49,685,573,-118,385,24.200001,54.900002,981.380005
01/01/2000,00:26:43.479,-527,-298,218,-992,63,431,573,-118,385,24.200001,54.900002,981.380005
01/01/2000,00:26:43.489,-493,-176,108,-1181,-73,239,564,-87,376,24.200001,54.900002,981.380005
01/01/2000,00:26:43.498,-460,-107,10,-1202,-167,137,585,-99,378,24.200001,54.900002,981.380005
01/01/2000,00:26:43.507,-445,-61,-43,-1145,-227,88,589,-112,361,24.200001,54.900002,981.380005
01/01/2000,00:26:43.517,-425,-26,-58,-1042,-256,21,589,-124,343,24.200001,54.900002,981.380005
01/01/2000,00:26:43.526,-398,12,-44,-947,-233,-74,571,-115,327,24.200001,54.900002,981.380005
01/01/2000,00:26:43.535,-375,83,-6,-843,-160,-220,564,-106,360,24.200001,54.900002,981.380005
01/01/2000,00:26:43.545,-379,169,52,-725,-44,-384,592,-102,340,24.200001,54.900002,981.380005
01/01/2000,00:26:43.554,-401,238,146,-618,78,-515,580,-73,343,24.200001,54.900002,981.380005
01/01/2000,00:26:43.563,-435,274,302,-631,238,-545,580,-73,343,24.200001,54.900002,981.380005
01/01/2000,00:26:43.572,-548,255,536,-814,360,-478,583,-85,346,24.200001,54.900002,981.380005
01/01/2000,00:26:43.582,-770,149,782,-940,284,-355,598,-63,352,24.200001,54.900002,981.380005
01/01/2000,00:26:43.592,-1098,-106,962,-700,7,-128,580,-72,340,24.200001,54.900002,981.380005
01/01/2000,00:26:43.601,-1565,-611,948,-122,-108,95,597,-75,346,24.200001,54.900002,981.380005
01/01/2000,00:26:43.610,-1988,-1134,779,601,239,324,604,-70,360,24.200001,54.900002,981.380005
01/01/2000,00:26:43.620,-1987,-1282,742,813,610,631,594,-61,346,24.200001,54.900002,981.380005
01/01/2000,00:26:43.629,-1596,-1048,841,528,407,965,600,-60,342,24.200001,54.900002,981.380005
01/01/2000,00:26:43.638,-1200,-655,770,528,407,965,585,-51,369,24.200001,54.900002,981.380005
01/01/2000,00:26:43.648,-954,-333,413,261,5,1194,591,-69,357,24.200001,54.900002,981.380005
01/01/2000,00:26:43.657,-834,-110,-70,335,-9,1232,591,-69,357,24.200001,54.900002,981.380005
01/01/2000,00:26:43.666,-839,75,-404,519,437,1053,582,-84,364,24.200001,54.900002,981.380005
01/01/2000,00:26:43.676,-971,231,-527,651,805,581,600,-69,366,24.200001,54.900002,981.380005
01/01/2000,00:26:43.688,-1160,395,-636,770,919,-147,586,-85,375,24.200001,54.900002,981.380005
01/01/2000,00:26:43.695,-1320,464,-637,757,954,-1066,588,-58,406,24.200001,54.900002,981.380005
01/01/2000,00:26:43.704,-1469,424,-529,388,1052,-1939,589,-39,384,24.200001,54.900002,981.380005
01/01/2000,00:26:43.713,-1543,431,-555,-137,863,-2413,594,-33,388,24.200001,54.900002,981.380005
01/01/2000,00:26:43.723,-1522,518,-700,-564,338,-2256,595,0,394,24.200001,54.900002,981.380005
01/01/2000,00:26:43.732,-1522,518,-700,-700,51,-1719,600,7,402,24.200001,54.900002,981.380005
01/01/2000,00:26:43.742,-1421,632,-573,-529,200,-1149,588,0,417,24.200001,54.900002,981.380005
01/01/2000,00:26:43.750,-1191,712,-69,-349,-403,-659,588,0,417,24.200001,54.900002,981.380005
01/01/2000,00:26:43.760,-972,629,29,-343,-829,-312,589,3,393,24.200001,54.900002,981.380005
01/01/2000,00:26:43.770,-919,335,-332,-66,-146,-59,595,16,388,24.200001,54.900002,981.380005
01/01/2000,00:26:43.779,-945,50,-384,246,648,-2,597,15,379,24.200001,54.900002,981.380005
01/01/2000,00:26:43.788,-935,-127,-162,257,885,-106,583,7,394,24.200001,54.900002,981.380005
01/01/2000,00:26:43.798,-946,-243,-37,-77,572,-268,586,12,397,24.200001,54.900002,981.380005
01/01/2000,00:26:43.807,-951,-336,-72,-518,146,-475,585,19,409,24.200001,54.900002,981.380005
01/01/2000,00:26:43.816,-866,-467,-157,-881,11,-608,583,16,396,24.200001,54.900002,981.380005
01/01/2000,00:26:43.826,-775,-582,-162,-962,152,-510,576,34,406,24.200001,54.900002,981.380005
01/01/2000,00:26:43.835,-750,-632,-68,-603,298,-409,591,15,412,24.200001,54.900002,981.380005
01/01/2000,00:26:43.844,-730,-648,77,-48,514,-279,591,15,412,24.200001,54.900002,981.380005
01/01/2000,00:26:43.853,-728,-579,216,303,689,-53,598,24,417,24.200001,54.900002,981.380005
01/01/2000,00:26:43.863,-804,-379,289,320,829,163,588,45,439,24.200001,54.900002,981.380005
01/01/2000,00:26:43.873,-942,-139,300,35,944,295,576,36,433,24.200001,54.900002,981.380005
01/01/2000,00:26:43.882,-1089,58,295,-392,884,240,580,40,430,24.200001,54.900002,981.380005
01/01/2000,00:26:43.891,-1136,133,244,-696,630,96,577,34,462,24.200001,54.900002,981.380005
01/01/2000,00:26:43.901,-1111,97,121,-845,327,10,582,52,447,24.200001,54.900002,981.380005
01/01/2000,00:26:43.910,-1063,29,10,-826,136,-83,586,36,448,24.200001,54.900002,981.380005
01/01/2000,00:26:43.920,-988,-39,-29,-788,51,-114,580,21,450,24.200001,54.900002,981.380005
01/01/2000,00:26:43.929,-916,-69,-45,-744,183,-134,559,30,462,24.200001,54.900002,981.380005
01/01/2000,00:26:43.938,-878,-44,-140,-472,375,-125,559,30,462,24.200001,54.900002,981.380005
01/01/2000,00:26:43.948,-904,54,-361,305,425,-186,582,36,444,24.200001,54.900002,981.380005
01/01/2000,00:26:43.957,-869,104,-493,1441,431,-264,564,33,475,24.200001,54.900002,981.380005
01/01/2000,00:26:43.966,-750,89,-320,2125,670,-248,589,37,459,24.200001,54.900002,981.380005
01/01/2000,00:26:43.976,-690,144,82,2174,1065,-206,573,36,459,24.200001,54.900002,981.380005
01/01/2000,00:26:43.985,-696,238,605,1646,1373,-186,549,46,478,24.200001,54.900002,981.380005
01/01/2000,00:26:43.994,-776,327,959,756,926,-281,568,57,463,24.200001,54.900002,981.380005
01/01/2000,00:26:44.004,-912,262,769,756,926,-281,552,51,480,24.200001,54.900002,981.380005
01/01/2000,00:26:44.013,-988,-76,327,105,175,-512,552,51,480,24.200001,54.900002,981.380005
01/01/2000,00:26:44.023,-970,-408,87,-59,-11,-675,547,75,475,24.200001,55.000000,981.390015
01/01/2000,00:26:44.032,-941,-511,13,83,0,-629,543,84,475,24.200001,55.000000,981.390015
01/01/2000,00:26:44.041,-924,-545,-3,184,-51,-536,544,85,484,24.200001,55.000000,981.390015
01/01/2000,00:26:44.051,-972,-643,10,91,-22,-497,562,91,477,24.200001,55.000000,981.390015
01/01/2000,00:26:44.060,-1177,-782,146,2,179,-366,534,97,471,24.200001,55.000000,981.390015
01/01/2000,00:26:44.069,-1473,-918,482,153,473,-153,555,97,477,24.200001,55.000000,981.390015
01/01/2000,00:26:44.079,-1473,-918,482,448,457,37,549,91,481,24.200001,55.000000,981.390015
01/01/2000,00:26:44.088,-1697,-930,777,390,-99,110,544,93,480,24.200001,55.000000,981.390015
01/01/2000,00:26:44.097,-1603,-712,735,-178,-896,114,544,93,480,24.200001,55.000000,981.390015
01/01/2000,00:26:44.106,-1380,-445,419,-862,-1585,81,549,94,496,24.200001,55.000000,981.390015
01/01/2000,00:26:44.116,-1267,-323,18,-1281,-1726,54,567,93,475,24.200001,55.000000,981.390015
01/01/2000,00:26:44.126,-1133,-302,-212,-1326,-1318,58,550,97,457,24.200001,55.000000,981.390015
01/01/2000,00:26:44.135,-959,-279,-167,-1132,-1066,38,567,94,456,24.200001,55.000000,981.390015
01/01/2000,00:26:44.144,-797,-243,-66,-948,-1142,47,562,109,454,24.200001,55.000000,981.390015
01/01/2000,00:26:44.154,-663,-228,-21,-942,-1319,89,585,90,453,24.200001,55.000000,981.390015
01/01/2000,00:26:44.163,-572,-215,-63,-1079,-1468,160,589,85,429,24.200001,55.000000,981.390015
01/01/2000,00:26:44.173,-512,-198,-181,-1212,-1472,273,586,93,429,24.200001,55.000000,981.390015
01/01/2000,00:26:44.182,-478,-175,-275,-1251,-1296,395,582,70,426,24.200001,55.000000,981.390015
01/01/2000,00:26:44.191,-504,-171,-291,-1174,-1071,520,582,70,426,24.200001,55.000000,981.390015
01/01/2000,00:26:44.201,-609,-191,-241,-1034,-1064,669,579,58,403,24.200001,55.000000,981.390015
01/01/2000,00:26:44.210,-814,-227,-191,-965,-1182,816,598,57,408,24.200001,55.000000,981.390015
01/01/2000,00:26:44.219,-1167,-268,-241,-1153,-1271,944,600,64,400,24.200001,55.000000,981.390015
01/01/2000,00:26:44.229,-1713,-346,-233,-1426,-1399,925,615,37,382,24.200001,55.000000,981.390015
01/01/2000,00:26:44.238,-2290,-435,-140,-1231,-1290,928,606,39,384,24.200001,55.000000,981.390015
01/01/2000,00:26:44.247,-2541,-454,-138,-803,-651,847,597,37,369,24.200001,55.000000,981.390015
01/01/2000,00:26:44.257,-2483,-348,-182,-291,-183,666,621,31,382,24.200001,55.000000,981.390015
01/01/2000,00:26:44.266,-2388,-148,-49,147,-220,384,607,31,391,24.200001,55.000000,981.390015
01/01/2000,00:26:44.275,-2053,-62,213,228,-586,94,607,31,391,24.200001,55.000000,981.390015
01/01/2000,00:26:44.284,-1474,-150,263,-267,-449,166,616,24,378,24.200001,55.000000,981.390015
01/01/2000,00:26:44.294,-1178,-205,99,-851,-158,412,589,12,402,24.200001,55.000000,981.390015
01/01/2000,00:26:44.304,-986,-261,-20,-1096,-193,745,603,19,358,24.200001,55.000000,981.390015
01/01/2000,00:26:44.313,-788,-342,-11,-888,-418,1278,625,7,354,24.200001,55.000000,981.390015
01/01/2000,00:26:44.322,-804,-259,32,-838,-363,1572,634,10,346,24.200001,55.000000,981.390015
01/01/2000,00:26:44.332,-737,-220,82,-1090,-252,1556,613,-13,366,24.200001,55.000000,981.390015
01/01/2000,00:26:44.341,-566,-304,43,-1090,-252,1556,624,-42,364,24.200001,55.000000,981.390015
01/01/2000,00:26:44.351,-457,-399,-14,-1439,-66,1400,613,-33,373,24.200001,55.000000,981.390015
01/01/2000,00:26:44.359,-417,-458,-32,-1677,221,1227,613,-33,373,24.200001,55.000000,981.390015
01/01/2000,00:26:44.369,-475,-411,-58,-1826,470,1089,607,-52,351,24.200001,55.000000,981.390015
01/01/2000,00:26:44.379,-571,-321,-96,-1908,621,899,628,-73,358,24.200001,55.000000,981.390015
01/01/2000,00:26:44.388,-635,-220,-148,-2047,679,663,616,-76,363,24.200001,55.000000,981.390015
01/01/2000,00:26:44.397,-673,-159,-182,-2208,717,442,609,-76,352,24.200001,55.000000,981.390015
01/01/2000,00:26:44.407,-715,-118,-237,-2407,741,233,613,-73,367,24.200001,55.000000,981.390015
01/01/2000,00:26:44.416,-755,-54,-319,-2622,765,32,621,-84,360,24.200001,55.000000,981.390015
01/01/2000,00:26:44.425,-755,-54,-319,-2726,784,-169,592,-88,351,24.200001,55.000000,981.390015
01/01/2000,00:26:44.435,-759,4,-380,-2646,742,-358,616,-94,375,24.200001,55.000000,981.390015
01/01/2000,00:26:44.444,-747,49,-394,-2414,609,-516,609,-94,372,24.200001,55.000000,981.390015
01/01/2000,00:26:44.453,-727,56,-386,-2112,284,-595,609,-94,372,24.200001,55.000000,981.390015
01/01/2000,00:26:44.462,-690,30,-374,-1836,-174,-505,601,-90,379,24.200001,55.000000,981.390015
01/01/2000,00:26:44.472,-621,39,-376,-1647,-469,-303,625,-93,375,24.200001,55.000000,981.390015
01/01/2000,00:26:44.482,-537,94,-312,-1482,-421,-131,618,-102,364,24.200001,55.000000,981.390015
01/01/2000,00:26:44.494,-474,157,-103,-1366,-370,-45,613,-94,364,24.200001,55.000000,981.390015
01/01/2000,00:26:44.500,-453,172,140,-1410,-473,17,604,-93,388,24.200001,55.000000,981.390015
01/01/2000,00:26:44.510,-551,74,190,-1711,-228,178,634,-100,357,24.200001,55.000000,981.390015
01/01/2000,00:26:44.519,-1026,-52,124,-1852,961,638,621,-112,375,24.200001,55.000000,981.390015
01/01/2000,00:26:44.529,-1784,-35,560,-1637,1567,773,618,-126,345,24.200001,55.000000,981.390015
01/01/2000,00:26:44.538,-2034,-45,951,-1519,1045,660,619,-129,366,24.200001,55.000000,981.390015
01/01/2000,00:26:44.547,-1602,-230,625,-1200,488,1082,619,-129,366,24.200001,55.000000,981.390015
01/01/2000,00:26:44.556,-1144,-359,166,-555,-38,1861,597,-138,387,24.200001,55.000000,981.390015
01/01/2000,00:26:44.566,-872,-297,-31,459,-534,2412,606,-144,385,24.200001,55.000000,981.390015
01/01/2000,00:26:44.575,-616,-138,-26,1518,-1032,2329,601,-157,355,24.200001,55.000000,981.390015
01/01/2000,00:26:44.585,-375,-18,-182,2291,-872,1752,595,-181,376,24.200001,55.000000,981.390015
01/01/2000,00:26:44.594,-244,50,-395,2204,353,883,591,-195,376,24.200001,55.000000,981.390015
01/01/2000,00:26:44.603,-283,-11,-108,1401,1685,-6,594,-187,381,24.200001,55.000000,981.390015
01/01/2000,00:26:44.613,-527,-29,-171,752,2651,-864,580,-189,388,24.200001,55.000000,981.390015
01/01/2000,00:26:44.622,-864,78,-417,105,2866,-1459,591,-189,442,24.200001,55.000000,981.390015
01/01/2000,00:26:44.632,-1244,101,-255,-882,2322,-1777,562,-177,459,24.200001,55.000000,981.390015
01/01/2000,00:26:44.640,-1691,12,-345,-1786,801,-2024,562,-177,459,24.200001,55.000000,981.390015
01/01/2000,00:26:44.650,-2158,-147,-605,-2649,-328,-1913,583,-162,451,24.200001,55.000000,981.390015
01/01/2000,00:26:44.660,-2543,-212,-686,-2866,-1056,-1407,567,-150,448,24.200001,55.000000,981.390015
01/01/2000,00:26:44.669,-2531,-276,-451,-1492,-1971,-223,606,-156,421,24.200001,55.000000,981.390015
01/01/2000,00:26:44.678,-2007,-362,-17,761,-1534,340,594,-150,411,24.200001,55.000000,981.390015
01/01/2000,00:26:44.688,-1248,-358,537,1010,-520,97,601,-154,408,24.200001,55.000000,981.390015
01/01/2000,00:26:44.697,-751,-202,555,1010,-520,97,598,-157,415,24.200001,55.000000,981.390015
01/01/2000,00:26:44.707,-693,104,-56,-271,30,-1,594,-162,420,24.200001,55.000000,981.390015
01/01/2000,00:26:44.716,-758,238,-477,-1374,612,-37,601,-148,417,24.200001,55.000000,981.390015
01/01/2000,00:26:44.725,-817,158,-472,-1848,1275,-182,610,-174,421,24.200001,55.000000,981.390015
01/01/2000,00:26:44.734,-793,62,-406,-2131,1301,-419,610,-174,421,24.200001,55.000000,981.390015
01/01/2000,00:26:44.743,-676,-13,-389,-2242,657,-608,570,-160,427,24.200001,55.000000,981.390015
01/01/2000,00:26:44.753,-594,-52,-384,-2151,81,-547,570,-160,427,24.200001,55.000000,981.390015
01/01/2000,00:26:44.763,-569,-46,-407,-2012,-71,-322,585,-169,424,24.200001,55.000000,981.390015
01/01/2000,00:26:44.772,-569,-46,-407,-1775,142,-100,594,-178,418,24.200001,55.000000,981.390015
01/01/2000,00:26:44.781,-618,93,-138,-1410,372,-26,597,-177,390,24.200001,55.000000,981.390015
01/01/2000,00:26:44.791,-714,404,354,-1067,555,-45,594,-178,402,24.200001,55.000000,981.390015
01/01/2000,00:26:44.800,-876,582,595,-664,643,-36,580,-192,429,24.200001,55.000000,981.390015
01/01/2000,00:26:44.810,-953,450,428,-285,438,-4,576,-183,418,24.200001,55.000000,981.390015
01/01/2000,00:26:44.819,-917,215,68,82,240,26,588,-187,414,24.200001,55.000000,981.390015
01/01/2000,00:26:44.828,-909,-16,-153,224,83,-14,588,-187,414,24.200001,55.000000,981.390015
01/01/2000,00:26:44.837,-882,-190,-237,129,41,-62,588,-178,433,24.200001,55.000000,981.390015
01/01/2000,00:26:44.847,-839,-250,-297,-71,182,-138,598,-189,432,24.200001,55.000000,981.390015
01/01/2000,00:26:44.856,-802,-257,-302,-300,355,-190,607,-186,421,24.200001,55.000000,981.390015
01/01/2000,00:26:44.866,-786,-214,-323,-430,507,-173,597,-174,441,24.200001,55.000000,981.390015
01/01/2000,00:26:44.875,-823,-99,-350,-343,831,-117,583,-183,429,24.200001,55.000000,981.390015
01/01/2000,00:26:44.885,-885,49,-226,-260,1332,-81,583,-186,438,24.200001,55.000000,981.390015
01/01/2000,00:26:44.894,-946,226,67,-377,1809,-52,594,-186,468,24.200001,55.000000,981.390015
01/01/2000,00:26:44.903,-1053,401,378,-558,1700,-65,573,-180,465,24.200001,55.000000,981.390015
01/01/2000,00:26:44.913,-1143,429,401,-431,932,-178,565,-199,474,24.200001,55.000000,981.390015
01/01/2000,00:26:44.921,-1140,201,187,28,333,-237,565,-199,474,24.200001,55.000000,981.390015
01/01/2000,00:26:44.931,-1088,-150,66,412,93,-252,568,-175,475,24.200001,55.000000,981.390015
01/01/2000,00:26:44.941,-1055,-364,53,581,83,-155,556,-160,507,24.200001,55.000000,981.390015
01/01/2000,00:26:44.950,-1045,-412,83,576,213,-98,556,-160,507,24.200001,55.000000,981.390015
01/01/2000,00:26:44.959,-1015,-421,136,439,365,-66,558,-174,508,24.200001,55.000000,981.390015
01/01/2000,00:26:44.969,-995,-388,155,271,463,-15,570,-166,496,24.200001,55.000000,981.390015
01/01/2000,00:26:44.978,-1013,-323,138,197,488,22,565,-159,508,24.200001,55.000000,981.390015
01/01/2000,00:26:44.988,-1133,-253,148,190,508,5,544,-162,505,24.200001,55.000000,981.390015
01/01/2000,00:26:44.997,-1381,-200,218,119,728,-62,559,-153,516,24.200001,55.000000,981.390015
01/01/2000,00:26:45.006,-1609,-194,465,-22,713,-78,543,-162,511,24.200001,55.000000,981.390015
01/01/2000,00:26:45.015,-1671,-182,704,-126,200,-112,543,-162,511,24.200001,55.000000,981.390015
01/01/2000,00:26:45.025,-1559,-183,508,-222,-439,-136,552,-157,535,24.200001,55.000000,981.390015
01/01/2000,00:26:45.034,-1362,-287,18,-365,-952,-79,559,-160,510,24.200001,55.000000,981.390015
01/01/2000,00:26:45.044,-1264,-447,-306,-365,-952,-79,552,-153,514,24.200001,55.000000,981.390015
01/01/2000,00:26:45.053,-1261,-602,-349,-582,-1190,22,553,-166,516,24.200001,55.000000,981.390015
01/01/2000,00:26:45.063,-1235,-719,-230,-748,-998,91,555,-141,484,24.200001,55.299999,981.400024
01/01/2000,00:26:45.072,-1189,-773,-79,-813,-875,111,555,-162,495,24.200001,55.299999,981.400024
01/01/2000,00:26:45.081,-1114,-777,-58,-905,-1113,94,570,-168,484,24.200001,55.299999,981.400024
01/01/2000,00:26:45.090,-1022,-749,-168,-943,-1470,91,570,-168,484,24.200001,55.299999,981.400024
01/01/2000,00:26:45.099,-1022,-749,-168,-799,-1539,225,561,-177,468,24.200001,55.299999,981.400024
01/01/2000,00:26:45.109,-1000,-554,-82,-513,-1418,439,562,-166,459,24.200001,55.299999,981.400024
01/01/2000,00:26:45.119,-1000,-554,-82,-75,-1449,620,573,-186,445,24.200001,55.299999,981.400024
01/01/2000,00:26:45.128,-1114,-359,70,64,-1177,883,583,-177,420,24.200001,55.299999,981.400024
01/01/2000,00:26:45.138,-1275,-34,184,-327,-945,920,574,-187,429,24.200001,55.299999,981.400024
01/01/2000,00:26:45.147,-1215,109,148,-898,-964,830,574,-181,427,24.200001,55.299999,981.400024
01/01/2000,00:26:45.156,-1136,121,-55,-1278,-946,911,585,-205,424,24.200001,55.299999,981.400024
01/01/2000,00:26:45.166,-1263,196,-131,-1371,-884,825,601,-207,405,24.200001,55.299999,981.400024
01/01/2000,00:26:45.175,-1476,354,-59,-1305,-988,588,573,-220,394,24.200001,55.299999,981.400024
01/01/2000,00:26:45.184,-1653,516,-87,-1055,-1048,287,573,-220,394,24.200001,55.299999,981.400024
01/01/2000,00:26:45.193,-1659,536,-186,-555,-873,21,585,-207,394,24.200001,55.299999,981.400024
01/01/2000,00:26:45.203,-1480,289,-151,-241,-341,-30,579,-226,381,24.200001,55.299999,981.400024
01/01/2000,00:26:45.212,-1472,-159,346,-643,-317,188,592,-214,378,24.200001,55.299999,981.400024
01/01/2000,00:26:45.222,-1477,-345,358,-1052,-1339,269,595,-210,360,24.200001,55.299999,981.400024
01/01/2000,00:26:45.234,-1228,-383,-179,-683,-1568,360,592,-216,340,24.200001,55.299999,981.400024
01/01/2000,00:26:45.241,-1061,-469,-184,-112,-1351,661,583,-219,342,24.200001,55.299999,981.400024
01/01/2000,00:26:45.250,-1025,-308,-3,100,-1133,849,597,-228,358,24.200001,55.299999,981.400024
01/01/2000,00:26:45.259,-958,-33,54,19,-1026,793,582,-228,328,24.200001,55.299999,981.400024
01/01/2000,00:26:45.269,-826,133,37,-155,-1038,720,589,-234,337,24.200001,55.299999,981.400024
01/01/2000,00:26:45.277,-674,182,2,-293,-1003,703,589,-234,337,24.200001,55.299999,981.400024
01/01/2000,00:26:45.287,-553,149,-6,-417,-841,729,577,-238,312,24.200001,55.299999,981.400024
01/01/2000,00:26:45.297,-502,85,8,-607,-672,762,588,-235,327,24.200001,55.299999,981.400024
01/01/2000,00:26:45.306,-493,39,-2,-822,-587,724,576,-253,301,24.200001,55.299999,981.400024
01/01/2000,00:26:45.316,-473,45,-13,-881,-600,659,568,-252,292,24.200001,55.299999,981.400024
01/01/2000,00:26:45.325,-419,70,1,-804,-598,582,582,-262,282,24.200001,55.299999,981.400024
01/01/2000,00:26:45.334,-335,94,17,-602,-570,464,585,-252,292,24.200001,55.299999,981.400024
01/01/2000,00:26:45.344,-245,51,30,-595,-356,385,600,-258,267,24.200001,55.299999,981.400024
01/01/2000,00:26:45.353,-199,-10,23,-686,-111,311,582,-267,265,24.200001,55.299999,981.400024
01/01/2000,00:26:45.362,-208,6,1,-655,21,225,582,-271,273,24.200001,55.299999,981.400024
01/01/2000,00:26:45.371,-224,40,-14,-506,114,153,582,-271,273,24.200001,55.299999,981.400024
01/01/2000,00:26:45.381,-242,84,-25,-329,224,80,598,-277,268,24.200001,55.299999,981.400024
01/01/2000,00:26:45.390,-276,115,-22,-329,224,80,574,-258,267,24.200001,55.299999,981.400024
01/01/2000,00:26:45.400,-359,136,-18,-184,352,2,579,-262,286,24.200001,55.299999,981.400024
01/01/2000,00:26:45.409,-508,151,-10,-93,478,-103,594,-267,262,24.200001,55.299999,981.400024
01/01/2000,00:26:45.419,-712,134,17,-17,634,-267,594,-252,280,24.200001,55.299999,981.400024
01/01/2000,00:26:45.428,-938,57,109,61,787,-463,603,-253,291,24.200001,55.299999,981.400024
01/01/2000,00:26:45.437,-1197,-94,312,116,883,-629,603,-261,277,24.200001,55.299999,981.400024
01/01/2000,00:26:45.447,-1509,-247,604,35,858,-600,592,-250,324,24.200001,55.299999,981.400024
01/01/2000,00:26:45.455,-1509,-247,604,-273,628,-387,592,-250,324,24.200001,55.299999,981.400024
01/01/2000,00:26:45.465,-1848,-359,1055,-532,324,-208,610,-267,342,24.200001,55.299999,981.400024
01/01/2000,00:26:45.475,-2138,-535,1448,-706,-196,-240,625,-247,331,24.200001,55.299999,981.400024
01/01/2000,00:26:45.484,-1932,-804,1027,-398,-273,21,639,-270,297,24.200001,55.299999,981.400024
01/01/2000,00:26:45.494,-1386,-989,311,459,-81,791,618,-289,333,24.200001,55.299999,981.400024
01/01/2000,00:26:45.503,-1084,-944,188,984,37,1347,610,-273,331,24.200001,55.299999,981.400024
01/01/2000,00:26:45.512,-922,-760,325,988,-9,1422,612,-288,322,24.200001,55.299999,981.400024
01/01/2000,00:26:45.522,-742,-529,272,762,9,1262,612,-286,348,24.200001,55.299999,981.400024
01/01/2000,00:26:45.531,-583,-207,-188,539,420,947,618,-313,349,24.200001,55.299999,981.400024
01/01/2000,00:26:45.540,-561,106,-581,596,1026,371,592,-298,361,24.200001,55.299999,981.400024
01/01/2000,00:26:45.549,-709,221,-438,645,1369,-376,592,-298,361,24.200001,55.299999,981.400024
01/01/2000,00:26:45.558,-847,292,-381,434,1354,-986,621,-321,364,24.200001,55.299999,981.400024
01/01/2000,00:26:45.568,-1018,418,-556,175,1450,-1463,634,-331,367,24.200001,55.299999,981.400024
01/01/2000,00:26:45.578,-1362,470,-496,-150,1199,-1825,631,-306,388,24.200001,55.299999,981.400024
01/01/2000,00:26:45.587,-1699,426,-327,-669,387,-1813,625,-294,379,24.200001,55.299999,981.400024
01/01/2000,00:26:45.597,-1935,456,-294,-1277,-453,-1355,630,-297,405,24.200001,55.299999,981.400024
01/01/2000,00:26:45.606,-1975,644,-143,-1695,-706,-1006,642,-298,405,24.200001,55.299999,981.400024
01/01/2000,00:26:45.615,-1547,655,43,-1512,-924,-660,642,-282,384,24.200001,55.299999,981.400024
01/01/2000,00:26:45.625,-976,362,-203,-399,-849,-191,658,-289,354,24.200001,55.299999,981.400024
01/01/2000,00:26:45.634,-750,93,-500,354,-96,27,648,-291,348,24.200001,55.299999,981.400024
01/01/2000,00:26:45.643,-779,-12,-460,28,927,77,648,-291,348,24.200001,55.299999,981.400024
01/01/2000,00:26:45.652,-853,-86,-297,-645,1096,154,654,-289,361,24.200001,55.299999,981.400024
01/01/2000,00:26:45.662,-887,-159,-205,-1110,577,71,663,-306,373,24.200001,55.299999,981.400024
01/01/2000,00:26:45.672,-840,-286,-220,-1473,164,-103,648,-298,354,24.200001,55.299999,981.400024
01/01/2000,00:26:45.684,-839,-432,-235,-1765,8,-151,651,-297,354,24.200001,55.299999,981.400024
01/01/2000,00:26:45.690,-909,-537,-198,-1615,-266,-132,655,-304,352,24.200001,55.299999,981.400024
01/01/2000,00:26:45.700,-919,-634,-222,-658,-105,-88,636,-310,340,24.200001,55.299999,981.400024
01/01/2000,00:26:45.709,-934,-624,-85,122,429,-129,648,-324,336,24.200001,55.299999,981.400024
01/01/2000,00:26:45.718,-894,-473,240,122,429,-129,643,-310,334,24.200001,55.299999,981.400024
01/01/2000,00:26:45.728,-864,-272,404,191,578,-168,657,-304,342,24.200001,55.299999,981.400024
01/01/2000,00:26:45.736,-971,-122,404,-254,611,-40,657,-304,342,24.200001,55.299999,981.400024
01/01/2000,00:26:45.746,-1103,-59,408,-818,908,81,630,-303,355,24.200001,55.299999,981.400024
01/01/2000,00:26:45.756,-1139,-36,370,-1304,1141,97,633,-307,327,24.200001,55.299999,981.400024
01/01/2000,00:26:45.765,-1043,-24,198,-1595,1021,23,612,-301,334,24.200001,55.299999,981.400024
01/01/2000,00:26:45.775,-890,-31,20,-1524,782,-68,624,-307,337,24.200001,55.299999,981.400024
01/01/2000,00:26:45.784,-762,-11,-76,-1186,610,-121,618,-312,306,24.200001,55.299999,981.400024
01/01/2000,00:26:45.793,-688,18,-69,-778,565,-146,606,-310,316,24.200001,55.299999,981.400024
01/01/2000,00:26:45.803,-664,54,-21,-437,624,-128,604,-322,334,24.200001,55.299999,981.400024
01/01/2000,00:26:45.812,-664,54,-21,-201,611,-84,579,-307,324,24.200001,55.299999,981.400024
01/01/2000,00:26:45.821,-677,124,-132,177,534,-25,600,-313,342,24.200001,55.299999,981.400024
01/01/2000,00:26:45.830,-737,170,-273,844,564,36,600,-313,342,24.200001,55.299999,981.400024
01/01/2000,00:26:45.840,-823,170,-76,1243,580,61,580,-312,333,24.200001,55.299999,981.400024
01/01/2000,00:26:45.850,-876,169,195,1109,602,20,586,-307,339,24.200001,55.299999,981.400024
01/01/2000,00:26:45.859,-905,155,239,736,593,-65,591,-312,351,24.200001,55.299999,981.400024
01/01/2000,00:26:45.868,-940,75,236,404,517,-203,556,-289,357,24.200001,55.299999,981.400024
01/01/2000,00:26:45.878,-992,-111,262,141,497,-317,555,-295,367,24.200001,55.299999,981.400024
01/01/2000,00:26:45.887,-1065,-329,335,-31,533,-360,585,-297,358,24.200001,55.299999,981.400024
01/01/2000,00:26:45.896,-1137,-469,389,-101,557,-399,582,-288,354,24.200001,55.299999,981.400024
01/01/2000,00:26:45.906,-1189,-542,324,-138,442,-429,565,-286,376,24.200001,55.299999,981.400024
01/01/2000,00:26:45.915,-1185,-595,181,-171,147,-428,588,-273,366,24.200001,55.299999,981.400024
01/01/2000,00:26:45.924,-1145,-668,78,-257,-213,-421,588,-273,366,24.200001,55.299999,981.400024
01/01/2000,00:26:45.934,-1146,-775,60,-419,-295,-389,565,-265,348,24.200001,55.299999,981.400024
01/01/2000,00:26:45.943,-1195,-938,149,-503,-38,-296,565,-265,348,24.200001,55.299999,981.400024
01/01/2000,00:26:45.953,-1272,-1151,420,-331,128,-135,573,-246,346,24.200001,55.299999,981.400024
01/01/2000,00:26:45.962,-1341,-1239,676,-8,-312,79,571,-255,343,24.200001,55.299999,981.400024
01/01/2000,00:26:45.971,-1330,-964,692,-81,-979,282,550,-244,325,24.200001,55.299999,981.400024
01/01/2000,00:26:45.981,-1270,-583,470,-602,-1422,356,546,-243,340,24.200001,55.299999,981.400024
01/01/2000,00:26:45.990,-1229,-423,127,-1135,-1648,390,544,-247,315,24.200001,55.299999,981.400024
01/01/2000,00:26:45.999,-1177,-406,-152,-1486,-1574,457,538,-244,286,24.200001,55.299999,981.400024
01/01/2000,00:26:46.008,-1080,-423,-254,-1708,-1324,523,538,-244,286,24.200001,55.299999,981.400024
01/01/2000,00:26:46.018,-955,-425,-215,-1912,-1175,606,541,-237,291,24.200001,55.299999,981.400024
01/01/2000,00:26:46.031,-901,-405,-151,-2099,-1190,711,526,-244,256,24.200001,55.299999,981.400024
01/01/2000,00:26:46.037,-951,-384,-151,-2265,-1233,825,508,-244,262,24.200001,55.299999,981.400024
01/01/2000,00:26:46.046,-998,-362,-232,-2406,-1156,931,531,-228,262,24.200001,55.299999,981.400024
01/01/2000,00:26:46.056,-1004,-323,-316,-2555,-1038,1034,511,-220,243,24.200001,55.299999,981.400024
01/01/2000,00:26:46.065,-1023,-256,-394,-2660,-935,1065,498,-220,247,24.200001,55.299999,981.400024
01/01/2000,00:26:46.074,-1093,-196,-475,-2709,-847,988,505,-222,232,24.200001,55.299999,981.400024
01/01/2000,00:26:46.084,-1266,-113,-563,-2709,-847,988,502,-231,205,24.200001,55.299999,981.400024
01/01/2000,00:26:46.093,-1490,-6,-662,-2714,-680,773,480,-232,202,24.200001,55.299999,981.400024
01/01/2000,00:26:46.102,-1624,37,-735,-2538,-422,483,480,-232,202,24.200001,55.299999,981.400024
01/01/2000,00:26:46.112,-1767,-172,-355,-2202,65,150,498,-217,211,24.200001,55.200001,981.539978
01/01/2000,00:26:46.121,-2008,-459,165,-1468,-84,278,480,-213,190,24.200001,55.200001,981.539978
01/01/2000,00:26:46.131,-2062,-629,462,-233,-596,614,489,-220,222,24.200001,55.200001,981.539978
01/01/2000,00:26:46.140,-1720,-815,485,94,-873,439,483,-220,198,24.200001,55.200001,981.539978
01/01/2000,00:26:46.149,-1426,-782,120,-982,-821,565,487,-246,198,24.200001,55.200001,981.539978
01/01/2000,00:26:46.159,-1426,-782,120,-2008,-645,863,492,-241,213,24.200001,55.200001,981.539978
01/01/2000,00:26:46.168,-1332,-563,-230,-2031,-732,796,501,-246,195,24.200001,55.200001,981.539978
01/01/2000,00:26:46.177,-1177,-327,-461,-1498,-738,679,481,-229,193,24.200001,55.200001,981.539978
01/01/2000,00:26:46.186,-1028,31,-501,-1006,-658,591,481,-229,193,24.200001,55.200001,981.539978
01/01/2000,00:26:46.196,-889,332,-311,-990,-581,576,486,-253,174,24.200001,55.200001,981.539978
01/01/2000,00:26:46.206,-699,460,-164,-1300,-519,736,489,-267,186,24.200001,55.200001,981.539978
01/01/2000,00:26:46.215,-533,491,-139,-1544,-445,956,484,-250,163,24.200001,55.200001,981.539978
01/01/2000,00:26:46.224,-471,414,-128,-1667,-300,1070,487,-253,148,24.200001,55.200001,981.539978
01/01/2000,00:26:46.234,-482,307,-129,-1601,-139,977,471,-286,132,24.200001,55.200001,981.539978
01/01/2000,00:26:46.243,-506,209,-117,-1469,-4,791,486,-276,136,24.200001,55.200001,981.539978
01/01/2000,00:26:46.252,-561,152,-119,-1377,138,618,486,-280,123,24.200001,55.200001,981.539978
01/01/2000,00:26:46.262,-631,161,-147,-1252,316,409,465,-285,121,24.200001,55.200001,981.539978
01/01/2000,00:26:46.271,-669,185,-174,-1043,477,205,493,-282,126,24.200001,55.200001,981.539978
01/01/2000,00:26:46.280,-673,204,-192,-791,564,41,493,-282,126,24.200001,55.200001,981.539978
01/01/2000,00:26:46.289,-659,222,-186,-558,562,-38,501,-295,115,24.200001,55.200001,981.539978
01/01/2000,00:26:46.299,-636,251,-167,-422,513,-93,498,-289,112,24.200001,55.200001,981.539978
01/01/2000,00:26:46.309,-599,288,-144,-397,492,-152,499,-295,120,24.200001,55.200001,981.539978
01/01/2000,00:26:46.318,-562,366,-86,-428,468,-224,508,-291,130,24.200001,55.200001,981.539978
01/01/2000,00:26:46.327,-535,484,43,-416,326,-336,493,-283,117,24.200001,55.200001,981.539978
01/01/2000,00:26:46.337,-519,517,267,-505,188,-351,508,-310,115,24.200001,55.200001,981.539978
01/01/2000,00:26:46.346,-646,386,426,-649,317,-299,507,-292,91,24.200001,55.200001,981.539978
01/01/2000,00:26:46.355,-896,87,489,-587,396,-237,499,-294,88,24.200001,55.200001,981.539978
01/01/2000,00:26:46.365,-1155,-381,503,-265,171,-23,499,-258,87,24.200001,55.200001,981.539978
01/01/2000,00:26:46.374,-1713,-677,890,-266,59,253,499,-258,87,24.200001,55.200001,981.539978
01/01/2000,00:26:46.383,-2327,-729,1464,-1507,-34,40,498,-291,106,24.200001,55.200001,981.539978
01/01/2000,00:26:46.393,-1993,-900,909,-1652,198,376,496,-297,66,24.200001,55.200001,981.539978
01/01/2000,00:26:46.402,-1119,-928,125,-61,127,1347,502,-273,76,24.200001,55.200001,981.539978
01/01/2000,00:26:46.412,-599,-766,40,1155,-182,1994,505,-265,69,24.200001,55.200001,981.539978
01/01/2000,00:26:46.424,-308,-612,-128,1566,-103,2086,474,-283,67,24.200001,55.200001,981.539978
01/01/2000,00:26:46.430,-173,-380,-453,1566,-103,2086,481,-309,63,24.200001,55.200001,981.539978
01/01/2000,00:26:46.440,-244,-163,-558,1641,625,1674,456,-301,63,24.200001,55.200001,981.539978
01/01/2000,00:26:46.449,-463,-11,-385,1363,1518,1012,457,-318,75,24.200001,55.200001,981.539978
01/01/2000,00:26:46.459,-700,102,-333,781,1901,269,481,-307,91,24.200001,55.200001,981.539978
01/01/2000,00:26:46.467,-977,178,-283,262,1694,-423,481,-307,91,24.200001,55.200001,981.539978
01/01/2000,00:26:46.477,-1348,191,-124,-76,1318,-1057,475,-315,109,24.200001,55.200001,981.539978
01/01/2000,00:26:46.487,-1790,181,-187,-586,453,-1541,492,-309,105,24.200001,55.200001,981.539978
01/01/2000,00:26:46.496,-2269,247,-406,-1190,-512,-1666,495,-274,93,24.200001,55.200001,981.539978
01/01/2000,00:26:46.505,-2269,247,-406,-1844,-1009,-1512,489,-271,76,24.200001,55.200001,981.539978
01/01/2000,00:26:46.515,-2521,509,-274,-2402,-703,-1321,502,-244,48,24.200001,55.200001,981.539978
01/01/2000,00:26:46.524,-2124,634,-242,-2284,86,-758,504,-205,79,24.200001,55.200001,981.539978
01/01/2000,00:26:46.533,-1430,439,-625,-1134,179,-424,501,-208,36,24.200001,55.200001,981.539978
01/01/2000,00:26:46.543,-1088,211,-673,-211,352,-165,513,-186,40,24.200001,55.200001,981.539978
01/01/2000,00:26:46.552,-934,28,-443,6,626,97,513,-186,40,24.200001,55.200001,981.539978
01/01/2000,00:26:46.561,-711,-96,-216,-132,762,280,508,-183,42,24.200001,55.200001,981.539978
01/01/2000,00:26:46.571,-469,-161,108,-373,506,331,526,-198,58,24.200001,55.200001,981.539978
01/01/2000,00:26:46.580,-307,-143,293,-675,52,158,490,-171,60,24.200001,55.200001,981.539978
01/01/2000,00:26:46.590,-286,-106,135,-842,27,-3,510,-189,57,24.200001,55.200001,981.539978
01/01/2000,00:26:46.599,-418,-106,-88,-814,431,-2,522,-169,42,24.200001,55.200001,981.539978
01/01/2000,00:26:46.608,-621,-110,-147,-583,835,51,513,-178,58,24.200001,55.200001,981.539978
01/01/2000,00:26:46.618,-798,-36,-54,-184,1124,66,523,-175,64,24.200001,55.200001,981.539978
01/01/2000,00:26:46.627,-984,130,165,251,1268,72,538,-154,82,24.200001,55.200001,981.539978
01/01/2000,00:26:46.636,-1159,249,337,637,1050,64,538,-154,82,24.200001,55.200001,981.539978
01/01/2000,00:26:46.645,-1233,210,381,940,576,2,522,-180,76,24.200001,55.200001,981.539978
01/01/2000,00:26:46.655,-1188,27,341,953,-3,-80,535,-174,96,24.200001,55.200001,981.539978
01/01/2000,00:26:46.665,-1080,-211,170,546,-329,-151,528,-169,96,24.200001,55.200001,981.539978
01/01/2000,00:26:46.674,-955,-362,-85,-119,-386,-197,538,-174,82,24.200001,55.200001,981.539978
01/01/2000,00:26:46.683,-786,-343,-327,-467,-336,-193,535,-159,88,24.200001,55.200001,981.539978
01/01/2000,00:26:46.693,-579,-260,-451,-260,-179,-201,523,-159,87,24.200001,55.200001,981.539978
01/01/2000,00:26:46.702,-470,-188,-480,287,-28,-136,534,-144,76,24.200001,55.200001,981.539978
01/01/2000,00:26:46.711,-465,-104,-492,872,184,-149,538,-165,91,24.200001,55.200001,981.539978
01/01/2000,00:26:46.721,-465,-31,-473,1306,803,-114,529,-154,87,24.200001,55.200001,981.539978
01/01/2000,00:26:46.730,-614,57,-309,1388,1884,-71,529,-154,87,24.200001,55.200001,981.539978
01/01/2000,00:26:46.739,-869,183,90,882,2696,-127,538,-153,109,24.200001,55.200001,981.539978
01/01/2000,00:26:46.749,-1213,382,813,-20,2866,-173,540,-145,126,24.200001,55.200001,981.539978
01/01/2000,00:26:46.758,-1594,443,1246,-284,1715,-304,531,-160,150,24.200001,55.200001,981.539978
01/01/2000,00:26:46.768,-1543,206,826,504,107,-253,552,-162,162,24.200001,55.200001,981.539978
01/01/2000,00:26:46.777,-1210,-44,213,504,107,-253,552,-136,202,24.200001,55.200001,981.539978
01/01/2000,00:26:46.786,-1031,-172,-121,1282,-830,-205,555,-148,154,24.200001,55.200001,981.539978
01/01/2000,00:26:46.796,-1041,-270,-283,1363,-1291,-216,564,-139,138,24.200001,55.200001,981.539978
01/01/2000,00:26:46.805,-1143,-411,-360,909,-1317,-218,556,-132,168,24.200001,55.200001,981.539978
01/01/2000,00:26:46.815,-1230,-609,-384,372,-1097,-115,558,-139,145,24.200001,55.200001,981.539978
01/01/2000,00:26:46.823,-1297,-827,-412,-66,-734,43,558,-139,145,24.200001,55.200001,981.539978
01/01/2000,00:26:46.833,-1297,-827,-412,-257,48,148,552,-135,147,24.200001,55.200001,981.539978
01/01/2000,00:26:46.843,-1355,-1290,114,126,1343,86,544,-138,153,24.200001,55.200001,981.539978
01/01/2000,00:26:46.852,-1355,-1290,114,984,1911,-28,561,-136,157,24.200001,55.200001,981.539978
01/01/2000,00:26:46.861,-1344,-1335,816,1429,703,138,553,-145,165,24.200001,55.200001,981.539978
01/01/2000,00:26:46.871,-1449,-1032,948,805,-617,424,552,-124,172,24.200001,55.200001,981.539978
01/01/2000,00:26:46.880,-1490,-690,459,-32,-953,345,558,-139,183,24.200001,55.200001,981.539978
01/01/2000,00:26:46.889,-1318,-617,112,-575,-790,218,553,-147,171,24.200001,55.200001,981.539978
01/01/2000,00:26:46.899,-1150,-642,30,-889,-790,180,564,-123,171,24.200001,55.200001,981.539978
01/01/2000,00:26:46.908,-1022,-663,-14,-1052,-931,192,552,-127,156,24.200001,55.200001,981.539978
01/01/2000,00:26:46.917,-935,-687,-45,-1139,-1086,261,552,-127,156,24.200001,55.200001,981.539978
01/01/2000,00:26:46.926,-852,-686,-93,-1148,-1084,378,541,-129,175,24.200001,55.200001,981.539978
01/01/2000,00:26:46.936,-778,-638,-109,-1093,-908,545,549,-129,124,24.200001,55.200001,981.539978
01/01/2000,00:26:46.946,-773,-539,-39,-1001,-729,737,550,-124,154,24.200001,55.200001,981.539978
01/01/2000,00:26:46.955,-813,-368,196,-739,-790,889,543,-142,126,24.200001,55.200001,981.539978
01/01/2000,00:26:46.964,-1023,-140,409,-685,-918,1053,552,-126,132,24.200001,55.200001,981.539978
01/01/2000,00:26:46.974,-1340,78,351,-1093,-789,1095,517,-145,139,24.200001,55.200001,981.539978
01/01/2000,00:26:46.983,-1338,149,116,-1521,-842,1064,540,-148,118,24.200001,55.200001,981.539978
01/01/2000,00:26:46.993,-1084,107,-173,-1613,-1005,1049,534,-145,115,24.200001,55.200001,981.539978
01/01/2000,00:26:47.002,-944,125,-397,-1414,-878,1053,516,-148,100,24.200001,55.200001,981.539978
01/01/2000,00:26:47.011,-1039,257,-544,-962,-373,952,516,-148,100,24.200001,55.200001,981.539978
01/01/2000,00:26:47.021,-1465,552,-376,-357,55,486,514,-151,99,24.200001,55.200001,981.539978
01/01/2000,00:26:47.030,-2008,853,123,8,-73,-208,519,-151,70,24.200001,55.200001,981.539978
01/01/2000,00:26:47.039,-2151,822,440,31,-346,-628,523,-129,87,24.200001,55.200001,981.539978
01/01/2000,00:26:47.049,-1853,532,359,186,-360,-325,523,-139,79,24.200001,55.200001,981.539978
01/01/2000,00:26:47.058,-1557,283,211,706,-390,180,525,-144,69,24.200001,55.200001,981.539978
01/01/2000,00:26:47.067,-1356,94,190,415,-537,251,526,-135,85,24.200001,55.200001,981.539978
01/01/2000,00:26:47.077,-1137,-69,123,-704,-707,302,528,-144,76,24.200001,55.200001,981.539978
01/01/2000,00:26:47.086,-892,-243,-26,-1497,-903,459,514,-148,79,24.200001,55.200001,981.539978
01/01/2000,00:26:47.095,-684,-439,-130,-1375,-1255,683,514,-148,79,24.200001,55.200001,981.539978
01/01/2000,00:26:47.104,-584,-557,-124,-703,-1549,874,504,-133,52,24.200001,55.200001,981.539978
01/01/2000,00:26:47.114,-555,-486,-17,-221,-1361,922,501,-142,45,24.200001,55.200001,981.539978
01/01/2000,00:26:47.124,-530,-263,130,-221,-1361,922,478,-142,27,24.200001,55.200001,981.539978
01/01/2000,00:26:47.133,-447,-80,150,-347,-909,757,498,-142,22,24.200001,55.200001,981.539978
01/01/2000,00:26:47.142,-359,-27,66,-704,-589,593,477,-138,22,24.200001,55.200001,981.539978
01/01/2000,00:26:47.151,-310,-39,4,-1096,-350,611,477,-138,22,24.200001,55.000000,981.539978
01/01/2000,00:26:47.161,-278,-63,-34,-1096,-350,611,454,-142,6,24.200001,55.000000,981.479980
01/01/2000,00:26:47.171,-259,-91,-66,-1178,-359,687,474,-111,25,24.200001,55.000000,981.479980
01/01/2000,00:26:47.179,-259,-91,-66,-1197,-376,702,474,-111,25,24.200001,55.000000,981.479980
01/01/2000,00:26:47.189,-263,-123,-74,-1195,-333,657,468,-136,4,24.200001,55.000000,981.479980
01/01/2000,00:26:47.199,-295,-134,-61,-1208,-285,587,481,-106,-9,24.200001,55.000000,981.479980
01/01/2000,00:26:47.208,-325,-122,-62,-1165,-282,462,463,-111,-6,24.200001,55.000000,981.479980
01/01/2000,00:26:47.217,-323,-103,-73,-1084,-228,327,486,-109,-12,24.200001,55.000000,981.479980
01/01/2000,00:26:47.227,-318,-81,-71,-992,-34,170,469,-99,-18,24.200001,55.000000,981.479980
01/01/2000,00:26:47.236,-346,-50,-54,-874,296,-6,472,-87,-22,24.200001,55.000000,981.479980
01/01/2000,00:26:47.246,-468,11,-40,-678,820,-274,483,-94,-21,24.200001,55.000000,981.479980
01/01/2000,00:26:47.255,-653,97,15,-451,1431,-621,475,-85,-15,24.200001,55.000000,981.479980
01/01/2000,00:26:47.267,-762,143,220,-298,1610,-803,490,-70,3,24.200001,55.000000,981.479980
01/01/2000,00:26:47.273,-832,165,493,-358,1166,-684,490,-70,3,24.200001,55.000000,981.479980
01/01/2000,00:26:47.282,-1027,149,642,-524,762,-409,504,-52,24,24.200001,55.000000,981.479980
01/01/2000,00:26:47.292,-1431,-32,697,-456,966,-72,511,-64,21,24.200001,55.000000,981.479980
01/01/2000,00:26:47.302,-2041,-312,852,4,1164,297,495,-37,43,24.200001,55.000000,981.479980
01/01/2000,00:26:47.311,-2490,-586,1062,293,886,577,531,-55,48,24.200001,55.000000,981.479980
01/01/2000,00:26:47.320,-2285,-734,1157,22,349,756,520,-54,57,24.200001,55.000000,981.479980
01/01/2000,00:26:47.330,-1676,-559,1004,-248,-345,1131,522,-49,37,24.200001,55.000000,981.479980
01/01/2000,00:26:47.339,-1206,-210,692,-146,-798,1495,525,-78,45,24.200001,55.000000,981.479980
01/01/2000,00:26:47.349,-878,91,436,130,-791,1503,520,-90,21,24.200001,55.000000,981.479980
01/01/2000,00:26:47.358,-567,287,286,392,-341,1157,502,-84,6,24.200001,55.000000,981.479980
01/01/2000,00:26:47.367,-351,319,272,590,134,649,502,-84,6,24.200001,55.000000,981.479980
01/01/2000,00:26:47.376,-310,299,99,749,535,102,492,-105,22,24.200001,55.000000,981.479980
01/01/2000,00:26:47.386,-400,312,-275,919,1147,-590,513,-127,31,24.200001,55.000000,981.479980
01/01/2000,00:26:47.395,-586,327,-506,1131,1651,-1204,511,-100,15,24.200001,55.000000,981.479980
01/01/2000,00:26:47.405,-1000,360,-585,1366,1786,-1647,516,-108,37,24.200001,55.000000,981.479980
01/01/2000,00:26:47.414,-1602,245,-603,1427,1467,-1863,531,-106,43,24.200001,55.000000,981.479980
01/01/2000,00:26:47.424,-2168,82,-691,802,1042,-1186,520,-82,66,24.200001,55.000000,981.479980
01/01/2000,00:26:47.433,-2550,234,-820,-7,1250,-667,543,-87,70,24.200001,55.000000,981.479980
01/01/2000,00:26:47.442,-2398,386,-624,-336,912,-641,541,-85,94,24.200001,55.000000,981.479980
01/01/2000,00:26:47.452,-1706,273,-231,-272,40,-473,568,-93,90,24.200001,55.000000,981.479980
01/01/2000,00:26:47.460,-1078,138,-48,-153,-445,-259,568,-93,90,24.200001,55.000000,981.479980
01/01/2000,00:26:47.470,-778,99,-98,-153,-445,-259,568,-75,93,24.200001,55.000000,981.479980
01/01/2000,00:26:47.480,-687,112,-158,-161,-51,-195,532,-81,91,24.200001,55.000000,981.479980
01/01/2000,00:26:47.489,-610,87,-203,-298,485,-345,558,-79,94,24.200001,55.000000,981.479980
01/01/2000,00:26:47.498,-531,79,-297,-390,640,-389,550,-81,99,24.200001,55.000000,981.479980
01/01/2000,00:26:47.508,-577,82,-332,-305,560,-308,552,-70,102,24.200001,55.000000,981.479980
01/01/2000,00:26:47.520,-701,13,-300,-37,383,-207,544,-76,105,24.200001,55.000000,981.479980
01/01/2000,00:26:47.527,-826,-49,-259,12,308,-99,562,-64,115,24.200001,55.000000,981.479980
01/01/2000,00:26:47.536,-891,-27,-154,-106,303,-54,550,-90,121,24.200001,55.000000,981.479980
01/01/2000,00:26:47.545,-891,-27,-154,-142,335,-62,546,-75,111,24.200001,55.000000,981.479980
01/01/2000,00:26:47.554,-872,112,30,106,470,-106,546,-75,111,24.200001,55.000000,981.479980
01/01/2000,00:26:47.563,-856,291,90,731,812,-30,562,-93,130,24.200001,55.000000,981.479980
01/01/2000,00:26:47.573,-873,319,76,1558,905,50,553,-88,142,24.200001,55.000000,981.479980
01/01/2000,00:26:47.583,-860,218,84,2046,492,43,553,-88,142,24.200001,55.000000,981.479980
01/01/2000,00:26:47.592,-846,106,7,2128,-134,1,567,-88,133,24.200001,55.000000,981.479980
01/01/2000,00:26:47.602,-837,13,-157,2045,-570,12,576,-118,126,24.200001,55.000000,981.479980
01/01/2000,00:26:47.611,-864,-48,-355,2074,-607,25,550,-112,147,24.200001,55.000000,981.479980
01/01/2000,00:26:47.620,-926,-118,-442,2178,-368,-34,549,-135,130,24.200001,55.000000,981.479980
01/01/2000,00:26:47.630,-980,-178,-398,2168,-123,-85,544,-124,129,24.200001,55.000000,981.479980
01/01/2000,00:26:47.638,-1020,-193,-347,2024,72,-149,544,-124,129,24.200001,55.000000,981.479980
01/01/2000,00:26:47.648,-1015,-215,-296,1784,284,-210,552,-147,136,24.200001,55.000000,981.479980
01/01/2000,00:26:47.658,-983,-241,-233,1471,425,-250,535,-151,157,24.200001,55.000000,981.479980
01/01/2000,00:26:47.667,-951,-230,-194,1331,367,-251,562,-148,168,24.200001,55.000000,981.479980
01/01/2000,00:26:47.676,-905,-217,-185,1389,281,-203,546,-142,169,24.200001,55.000000,981.479980
01/01/2000,00:26:47.686,-846,-235,-152,1489,336,-176,550,-151,169,24.200001,55.000000,981.479980
01/01/2000,00:26:47.695,-778,-276,-115,1564,505,-162,538,-157,171,24.200001,55.000000,981.479980
01/01/2000,00:26:47.705,-589,-303,-85,1859,1440,-176,550,-168,169,24.200001,55.000000,981.479980
01/01/2000,00:26:47.714,-558,-424,114,2256,2424,-118,585,-151,208,24.200001,55.000000,981.479980
01/01/2000,00:26:47.723,-837,-630,386,2390,2300,52,571,-183,225,24.200001,55.000000,981.479980
01/01/2000,00:26:47.732,-1066,-707,476,2189,1407,207,571,-183,225,24.200001,55.000000,981.479980
01/01/2000,00:26:47.741,-1165,-657,442,1802,842,74,568,-172,249,24.200001,55.000000,981.479980
01/01/2000,00:26:47.751,-1175,-657,431,1357,686,-95,550,-172,273,24.200001,55.000000,981.479980
01/01/2000,00:26:47.761,-1190,-684,361,975,317,-16,568,-184,265,24.200001,55.000000,981.479980
01/01/2000,00:26:47.770,-1297,-600,209,719,-193,89,550,-195,291,24.200001,55.000000,981.479980
01/01/2000,00:26:47.780,-1359,-481,85,548,-661,93,555,-175,262,24.200001,55.000000,981.479980
01/01/2000,00:26:47.789,-1318,-437,-31,472,-862,111,564,-186,264,24.200001,55.000000,981.479980
01/01/2000,00:26:47.798,-1251,-475,-69,569,-798,41,558,-201,270,24.200001,55.000000,981.479980
01/01/2000,00:26:47.808,-1118,-621,13,569,-798,41,564,-208,259,24.200001,55.000000,981.479980
01/01/2000,00:26:47.820,-991,-792,129,694,-677,-49,559,-178,262,24.200001,55.000000,981.479980
01/01/2000,00:26:47.826,-962,-849,191,735,-589,-12,559,-178,262,24.200001,55.000000,981.479980
01/01/2000,00:26:47.835,-977,-764,138,614,-610,66,562,-196,267,24.200001,55.000000,981.479980
01/01/2000,00:26:47.845,-1024,-605,43,352,-545,193,555,-207,258,24.200001,55.000000,981.479980
01/01/2000,00:26:47.854,-1059,-463,3,47,-385,335,555,-217,219,24.200001,55.000000,981.479980
01/01/2000,00:26:47.864,-1044,-352,10,-192,-312,454,558,-211,256,24.200001,55.000000,981.479980
01/01/2000,00:26:47.873,-1027,-270,65,-355,-308,553,556,-235,249,24.200001,55.000000,981.479980
01/01/2000,00:26:47.883,-1018,-192,121,-492,-337,638,538,-219,247,24.200001,55.000000,981.479980
01/01/2000,00:26:47.892,-1018,-192,121,-582,-487,717,549,-223,231,24.200001,55.000000,981.479980
01/01/2000,00:26:47.901,-1020,-68,178,-573,-793,785,544,-211,234,24.200001,55.000000,981.479980
01/01/2000,00:26:47.910,-1054,147,322,-406,-1070,833,541,-238,217,24.200001,55.000000,981.479980
01/01/2000,00:26:47.919,-1205,392,505,-207,-1215,837,541,-238,217,24.200001,55.000000,981.479980
01/01/2000,00:26:47.929,-1358,464,474,-237,-1222,853,526,-237,225,24.200001,55.000000,981.479980
01/01/2000,00:26:47.939,-1267,366,221,-445,-1337,863,526,-256,204,24.200001,55.000000,981.479980
01/01/2000,00:26:47.948,-1082,275,-79,-756,-1314,898,519,-261,189,24.200001,55.000000,981.479980
01/01/2000,00:26:47.958,-1077,303,-392,-982,-924,853,492,-255,177,24.200001,55.000000,981.479980
01/01/2000,00:26:47.967,-1336,486,-565,-819,-637,671,492,-265,181,24.200001,55.000000,981.479980
01/01/2000,00:26:47.976,-1716,823,-644,-237,-648,158,502,-268,162,24.200001,55.000000,981.479980
01/01/2000,00:26:47.986,-2079,1195,-582,667,-760,-501,496,-255,151,24.200001,55.000000,981.479980
01/01/2000,00:26:47.995,-2385,1447,-122,1348,-1202,-1169,513,-252,156,24.200001,55.000000,981.479980
01/01/2000,00:26:48.004,-2203,1360,263,1768,-1979,-1428,510,-258,159,24.200001,55.000000,981.479980
01/01/2000,00:26:48.016,-1578,1001,306,2615,-2698,-862,510,-258,159,24.200001,55.000000,981.479980
01/01/2000,00:26:48.023,-1153,779,253,2866,-2866,-293,490,-264,142,24.200001,55.000000,981.479980
01/01/2000,00:26:48.032,-822,575,125,2866,-1977,-292,501,-277,139,24.200001,55.000000,981.479980
01/01/2000,00:26:48.042,-550,304,-62,2670,-538,6,493,-286,151,24.200001,55.000000,981.479980
01/01/2000,00:26:48.051,-510,150,-240,2002,492,448,504,-282,150,24.200001,55.000000,981.479980
01/01/2000,00:26:48.061,-522,9,-232,1410,598,755,498,-297,160,24.200001,55.000000,981.479980
01/01/2000,00:26:48.070,-475,-255,-54,1109,1,1042,501,-307,171,24.200001,55.000000,981.479980
01/01/2000,00:26:48.079,-439,-457,61,1347,-953,1403,483,-300,207,24.200001,55.000000,981.479980
01/01/2000,00:26:48.088,-432,-503,57,1777,-1623,1579,483,-300,207,24.200001,55.000000,981.479980
01/01/2000,00:26:48.097,-392,-537,34,2022,-1745,1515,456,-331,190,24.200001,55.000000,981.479980
01/01/2000,00:26:48.107,-327,-596,78,1915,-1532,1332,465,-336,207,24.200001,55.000000,981.479980
01/01/2000,00:26:48.117,-273,-652,140,1460,-1173,1112,433,-345,192,24.200001,55.000000,981.479980
01/01/2000,00:26:48.126,-246,-664,177,881,-756,846,417,-369,207,24.200001,55.000000,981.479980
01/01/2000,00:26:48.136,-251,-612,189,369,-424,485,420,-343,186,24.200001,55.000000,981.479980
01/01/2000,00:26:48.145,-305,-523,145,154,-229,-2,414,-348,192,24.200001,55.000000,981.479980
01/01/2000,00:26:48.154,-374,-463,121,133,11,-365,418,-370,186,24.200001,55.000000,981.479980
01/01/2000,00:26:48.164,-449,-447,188,133,11,-365,415,-351,220,24.200001,55.000000,981.479980
01/01/2000,00:26:48.173,-546,-407,246,-46,294,-495,432,-348,201,24.200001,55.000000,981.479980
01/01/2000,00:26:48.182,-600,-338,240,-439,548,-576,432,-348,201,24.200001,55.000000,981.479980
01/01/2000,00:26:48.191,-559,-292,223,-753,677,-693,439,-357,180,24.200001,55.000000,981.479980
01/01/2000,00:26:48.201,-471,-261,222,-867,674,-757,442,-342,190,24.200001,54.700001,981.390015
01/01/2000,00:26:48.210,-373,-250,231,-894,641,-737,442,-342,190,24.200001,54.700001,981.390015
01/01/2000,00:26:48.220,-272,-279,196,-950,634,-684,448,-336,177,24.200001,54.700001,981.390015
01/01/2000,00:26:48.229,-222,-412,110,-1001,651,-617,460,-333,184,24.200001,54.700001,981.390015
01/01/2000,00:26:48.239,-222,-412,110,-828,779,-451,453,-322,178,24.200001,54.700001,981.390015
01/01/2000,00:26:48.248,-313,-763,34,20,1166,-17,454,-324,196,24.200001,54.700001,981.390015
01/01/2000,00:26:48.257,-828,-1296,102,1614,1291,751,457,-342,220,24.200001,54.700001,981.390015
01/01/2000,00:26:48.266,-1952,-1609,311,2626,1787,1120,457,-342,220,24.200001,54.700001,981.390015
01/01/2000,00:26:48.275,-3185,-1727,1335,2575,2112,854,459,-331,225,24.200001,54.700001,981.390015
01/01/2000,00:26:48.285,-3709,-1180,2222,1782,1839,525,448,-324,250,24.200001,54.700001,981.390015
01/01/2000,00:26:48.295,-2945,-72,1353,351,1270,-720,439,-331,252,24.200001,54.700001,981.390015
01/01/2000,00:26:48.304,-1758,509,82,-253,747,-1999,448,-328,291,24.200001,54.700001,981.390015
01/01/2000,00:26:48.314,-1244,630,-271,-266,-198,-2724,478,-321,258,24.200001,54.700001,981.390015
01/01/2000,00:26:48.323,-1062,666,-457,-161,-796,-2866,477,-298,259,24.200001,54.700001,981.390015
01/01/2000,00:26:48.332,-826,758,-772,225,-585,-2513,511,-283,282,24.200001,54.700001,981.390015
01/01/2000,00:26:48.342,-656,906,-855,758,221,-1215,493,-282,270,24.200001,54.700001,981.390015
01/01/2000,00:26:48.351,-671,1045,-365,1160,1211,109,507,-262,279,24.200001,54.700001,981.390015
01/01/2000,00:26:48.360,-718,1082,281,661,958,596,507,-262,279,24.200001,54.700001,981.390015
01/01/2000,00:26:48.369,-599,946,229,-29,805,419,513,-274,307,24.200001,54.700001,981.390015
01/01/2000,00:26:48.379,-468,810,-90,-507,1254,47,493,-274,297,24.200001,54.700001,981.390015
01/01/2000,00:26:48.389,-596,756,-247,-639,1696,-495,504,-276,286,24.200001,54.700001,981.390015
01/01/2000,00:26:48.398,-796,590,-459,-225,1368,-928,514,-276,292,24.200001,54.700001,981.390015
01/01/2000,00:26:48.407,-819,280,-728,358,981,-902,511,-264,298,24.200001,54.700001,981.390015
01/01/2000,00:26:48.417,-848,30,-816,518,800,-613,516,-252,349,24.200001,54.700001,981.390015
01/01/2000,00:26:48.426,-1023,-71,-805,218,566,-265,514,-241,328,24.200001,54.700001,981.390015
01/01/2000,00:26:48.435,-1234,-102,-788,-210,229,0,508,-271,319,24.200001,54.700001,981.390015
01/01/2000,00:26:48.445,-1379,-127,-774,-432,-44,121,516,-270,309,24.200001,54.700001,981.390015
01/01/2000,00:26:48.453,-1419,-155,-736,-489,-57,107,516,-270,309,24.200001,54.700001,981.390015
01/01/2000,00:26:48.463,-1311,-197,-638,-545,234,-34,522,-282,330,24.200001,54.700001,981.390015
01/01/2000,00:26:48.473,-1081,-309,-296,-200,111,-37,508,-253,316,24.200001,54.700001,981.390015
01/01/2000,00:26:48.482,-843,-369,-169,1784,-436,59,508,-271,298,24.200001,54.700001,981.390015
01/01/2000,00:26:48.492,-650,-383,-282,2751,42,-21,511,-258,342,24.200001,54.700001,981.390015
01/01/2000,00:26:48.501,-559,-423,-135,2866,1105,-34,505,-246,337,24.200001,54.700001,981.390015
01/01/2000,00:26:48.510,-679,-333,63,2866,1374,77,498,-247,366,24.200001,54.700001,981.390015
01/01/2000,00:26:48.520,-847,-219,156,2866,1382,70,514,-259,387,24.200001,54.700001,981.390015
01/01/2000,00:26:48.529,-906,-233,183,2635,908,120,520,-244,415,24.200001,54.700001,981.390015
01/01/2000,00:26:48.538,-972,-203,169,2299,218,164,498,-232,417,24.200001,54.700001,981.390015
01/01/2000,00:26:48.547,-1050,-156,98,1960,-405,115,498,-232,417,24.200001,54.700001,981.390015
01/01/2000,00:26:48.560,-1078,-191,1,1632,-725,-33,496,-238,394,24.200001,54.700001,981.390015
01/01/2000,00:26:48.567,-1077,-244,-72,1373,-656,-202,502,-219,424,24.200001,54.700001,981.390015
01/01/2000,00:26:48.576,-1077,-291,-107,1248,-292,-329,502,-219,424,24.200001,54.700001,981.390015
01/01/2000,00:26:48.585,-1077,-291,-107,1291,101,-426,516,-225,420,24.200001,54.700001,981.390015
01/01/2000,00:26:48.595,-1093,-319,-142,1645,344,-424,522,-211,445,24.200001,54.700001,981.390015
01/01/2000,00:26:48.604,-1070,-368,-162,2321,437,-410,504,-207,439,24.200001,54.700001,981.390015
01/01/2000,00:26:48.613,-993,-485,-86,2777,410,-329,517,-183,448,24.200001,54.700001,981.390015
01/01/2000,00:26:48.623,-981,-632,55,2866,164,-241,505,-172,465,24.200001,54.700001,981.390015
01/01/2000,00:26:48.632,-965,-748,148,2866,-139,-168,532,-165,466,24.200001,54.700001,981.390015
01/01/2000,00:26:48.641,-875,-836,162,2864,-204,-49,532,-165,466,24.200001,54.700001,981.390015
01/01/2000,00:26:48.650,-821,-951,149,2355,126,97,531,-150,484,24.200001,54.700001,981.390015
01/01/2000,00:26:48.660,-915,-1082,156,1581,641,187,513,-136,471,24.200001,54.700001,981.390015
01/01/2000,00:26:48.670,-1121,-1190,210,831,1023,105,522,-141,493,24.200001,54.700001,981.390015
01/01/2000,00:26:48.679,-1271,-1285,306,268,1164,-118,499,-148,496,24.200001,54.700001,981.390015
01/01/2000,00:26:48.688,-1247,-1226,483,48,840,-66,514,-130,499,24.200001,54.700001,981.390015
01/01/2000,00:26:48.698,-1205,-884,569,-122,105,189,504,-121,519,24.200001,54.700001,981.390015
01/01/2000,00:26:48.707,-1235,-554,432,-252,-379,250,513,-135,502,24.200001,54.700001,981.390015
01/01/2000,00:26:48.716,-1185,-437,314,-330,-594,236,507,-133,486,24.200001,54.700001,981.390015
01/01/2000,00:26:48.725,-1069,-405,253,-420,-873,258,507,-133,486,24.200001,54.700001,981.390015
01/01/2000,00:26:48.735,-964,-405,172,-567,-1011,311,511,-156,490,24.200001,54.700001,981.390015
01/01/2000,00:26:48.745,-920,-411,113,-772,-1121,396,499,-139,472,24.200001,54.700001,981.390015
01/01/2000,00:26:48.757,-892,-386,49,-986,-1340,477,526,-139,472,24.200001,54.700001,981.390015
01/01/2000,00:26:48.763,-829,-328,-49,-1172,-1340,579,528,-138,480,24.200001,54.700001,981.390015
01/01/2000,00:26:48.773,-798,-247,-86,-1267,-1045,726,531,-157,442,24.200001,54.700001,981.390015
01/01/2000,00:26:48.782,-885,-138,43,-1033,-817,936,522,-174,433,24.200001,54.700001,981.390015
01/01/2000,00:26:48.791,-1168,16,245,-668,-882,1268,516,-165,433,24.200001,54.700001,981.390015
01/01/2000,00:26:48.801,-1354,178,348,-601,-1296,1417,526,-178,411,24.200001,54.700001,981.390015
01/01/2000,00:26:48.810,-1261,250,192,-727,-1780,1377,517,-180,415,24.200001,54.700001,981.390015
01/01/2000,00:26:48.819,-1111,185,-145,-863,-1824,1428,517,-180,415,24.200001,54.700001,981.390015
01/01/2000,00:26:48.828,-1154,137,-349,-818,-1409,1482,522,-222,399,24.200001,54.700001,981.390015
01/01/2000,00:26:48.838,-1483,260,-298,-682,-998,1289,525,-208,388,24.200001,54.700001,981.390015
01/01/2000,00:26:48.848,-1927,554,-142,-285,-902,797,523,-229,363,24.200001,54.700001,981.390015
01/01/2000,00:26:48.857,-2505,998,-66,609,-1079,87,513,-234,352,24.200001,54.700001,981.390015
01/01/2000,00:26:48.866,-2871,1253,-12,609,-1079,87,517,-252,364,24.200001,54.700001,981.390015
01/01/2000,00:26:48.876,-2668,1153,94,1637,-1043,-874,528,-223,363,24.200001,54.700001,981.390015
01/01/2000,00:26:48.885,-2025,899,295,2475,-734,-1433,532,-195,361,24.200001,54.700001,981.390015
01/01/2000,00:26:48.894,-1332,599,514,2817,-1394,-1037,535,-204,369,24.200001,54.700001,981.390015
01/01/2000,00:26:48.904,-803,321,369,2866,-2422,-420,543,-177,367,24.200001,54.700001,981.390015
01/01/2000,00:26:48.913,-803,321,369,2537,-2114,-58,543,-177,367,24.200001,54.700001,981.390015
01/01/2000,00:26:48.922,-558,162,97,1283,-976,303,550,-190,363,24.200001,54.700001,981.390015
01/01/2000,00:26:48.932,-564,43,-55,373,-241,593,538,-178,366,24.200001,54.700001,981.390015
01/01/2000,00:26:48.941,-548,-193,-8,7,-230,851,528,-192,343,24.200001,54.700001,981.390015
01/01/2000,00:26:48.954,-549,-444,155,-131,-657,1101,559,-193,346,24.200001,54.700001,981.390015
01/01/2000,00:26:48.960,-547,-602,136,-171,-988,1357,523,-184,363,24.200001,54.700001,981.390015
01/01/2000,00:26:48.969,-531,-661,99,-159,-1048,1507,532,-211,336,24.200001,54.700001,981.390015
01/01/2000,00:26:48.979,-472,-679,98,-93,-1052,1486,541,-235,319,24.200001,54.700001,981.390015
01/01/2000,00:26:48.988,-379,-679,93,-76,-1017,1390,522,-228,327,24.200001,54.700001,981.390015
01/01/2000,00:26:48.997,-310,-665,73,-170,-905,1285,522,-264,315,24.200001,54.700001,981.390015
01/01/2000,00:26:49.006,-282,-650,77,-422,-769,1154,522,-264,315,24.200001,54.700001,981.390015
01/01/2000,00:26:49.016,-271,-635,88,-768,-642,1006,528,-268,307,24.200001,54.700001,981.390015
01/01/2000,00:26:49.026,-252,-632,65,-1126,-553,852,508,-252,306,24.200001,54.700001,981.390015
01/01/2000,00:26:49.035,-240,-642,5,-1498,-453,707,532,-277,304,24.200001,54.700001,981.390015
01/01/2000,00:26:49.044,-253,-647,-99,-1885,-271,569,507,-256,268,24.200001,54.700001,981.390015
01/01/2000,00:26:49.054,-292,-631,-249,-2204,55,378,508,-271,282,24.200001,54.700001,981.390015
01/01/2000,00:26:49.063,-361,-573,-422,-2368,590,159,510,-262,261,24.200001,54.700001,981.390015
01/01/2000,00:26:49.072,-464,-456,-571,-2199,1194,-110,514,-259,250,24.200001,54.700001,981.390015
01/01/2000,00:26:49.082,-565,-343,-517,-1714,1505,-477,520,-282,250,24.200001,54.700001,981.390015
01/01/2000,00:26:49.091,-600,-274,-200,-1226,1207,-775,505,-264,259,24.200001,54.700001,981.390015
01/01/2000,00:26:49.100,-637,-191,281,-818,388,-894,505,-264,259,24.200001,54.700001,981.390015
01/01/2000,00:26:49.109,-841,-183,967,-741,-498,-939,522,-244,258,24.200001,54.700001,981.390015
01/01/2000,00:26:49.119,-1182,-444,1409,-1135,-532,-1015,531,-243,259,24.200001,54.700001,981.390015
01/01/2000,00:26:49.129,-1561,-652,1378,-1442,185,-1120,531,-247,237,24.200001,54.700001,981.390015
01/01/2000,00:26:49.138,-1879,-256,1136,-1965,534,-1218,535,-250,255,24.200001,54.700001,981.390015
01/01/2000,00:26:49.147,-2071,369,949,-2227,-362,-1380,547,-225,252,24.200001,54.700001,981.390015
01/01/2000,00:26:49.157,-1909,748,990,-1710,-1268,-1165,552,-216,226,24.200001,54.700001,981.390015
01/01/2000,00:26:49.166,-1478,1118,1219,-431,-1094,-131,556,-211,208,24.200001,54.700001,981.390015
01/01/2000,00:26:49.175,-1126,1437,1406,363,-896,607,559,-213,217,24.200001,54.700001,981.390015
01/01/2000,00:26:49.185,-715,1423,613,321,-778,482,556,-204,220,24.200001,54.700001,981.390015
01/01/2000,00:26:49.197,-362,1194,-703,724,86,120,556,-204,220,24.200001,54.700001,981.390015
01/01/2000,00:26:49.203,-251,1003,-1089,1393,1359,-232,540,-208,208,24.200001,54.700001,981.390015
01/01/2000,00:26:49.213,-191,812,-621,1393,1359,-232,541,-220,217,24.200001,54.700001,981.390015
01/01/2000,00:26:49.222,-124,618,-67,1756,2371,-531,561,-204,214,24.200001,54.700001,981.390015
01/01/2000,00:26:49.232,-111,220,-470,1418,2435,-601,540,-231,256,24.200001,54.700001,981.390015
01/01/2000,00:26:49.241,-407,-123,-1035,882,2743,-441,564,-216,316,24.200001,55.500000,981.440002
01/01/2000,00:26:49.250,-927,-179,-1192,-30,2866,87,564,-216,316,24.200001,55.500000,981.440002
01/01/2000,00:26:49.260,-1490,-180,-1404,-625,2866,456,547,-225,340,24.200001,55.500000,981.440002
01/01/2000,00:26:49.269,-2010,-183,-1245,-548,2866,620,561,-229,370,24.200001,55.500000,981.440002
01/01/2000,00:26:49.278,-2010,-183,-1245,-334,1747,117,561,-229,370,24.200001,55.500000,981.440002
01/01/2000,00:26:49.287,-2054,-346,-1059,-732,320,-487,547,-231,357,24.200001,55.500000,981.440002
01/01/2000,00:26:49.297,-1761,-406,-992,-1252,-370,-740,550,-220,354,24.200001,55.500000,981.440002
01/01/2000,00:26:49.307,-1496,-440,-749,-1380,-391,-719,547,-226,354,24.200001,55.500000,981.440002
01/01/2000,00:26:49.316,-1408,-648,-413,872,-1896,248,552,-216,339,24.200001,55.500000,981.440002
01/01/2000,00:26:49.325,-1479,-657,-300,2556,-2417,567,538,-231,333,24.200001,55.500000,981.440002
01/01/2000,00:26:49.335,-1307,-522,164,2866,-739,-508,546,-217,363,24.200001,55.500000,981.440002
01/01/2000,00:26:49.344,-899,-398,834,2578,1053,-1290,555,-211,366,24.200001,55.500000,981.440002
01/01/2000,00:26:49.354,-865,-166,675,1374,1902,-1333,529,-175,381,24.200001,55.500000,981.440002
01/01/2000,00:26:49.363,-1054,-42,126,893,1916,-1184,576,-181,402,24.200001,55.500000,981.440002
01/01/2000,00:26:49.372,-1077,-160,-4,741,1520,-841,576,-181,402,24.200001,55.500000,981.440002
01/01/2000,00:26:49.381,-1036,-243,29,345,1152,-497,544,-175,412,24.200001,55.500000,981.440002
01/01/2000,00:26:49.391,-932,-209,20,-53,983,-441,537,-160,441,24.200001,55.500000,981.440002
01/01/2000,00:26:49.400,-745,-226,100,-286,751,-422,537,-160,441,24.200001,55.500000,981.440002
01/01/2000,00:26:49.410,-546,-250,131,-301,620,-386,541,-166,417,24.200001,55.500000,981.440002
01/01/2000,00:26:49.419,-426,-291,140,44,589,-299,550,-162,426,24.200001,55.500000,981.440002
01/01/2000,00:26:49.428,-446,-309,171,347,427,-121,550,-168,450,24.200001,55.500000,981.440002
01/01/2000,00:26:49.441,-558,-209,148,180,130,21,555,-163,448,24.200001,55.500000,981.440002
01/01/2000,00:26:49.447,-629,-120,29,-341,-92,47,540,-157,442,24.200001,55.500000,981.440002
01/01/2000,00:26:49.457,-677,-16,-257,-589,-124,-4,568,-190,442,24.200001,55.500000,981.440002
01/01/2000,00:26:49.465,-788,204,-830,252,56,-112,568,-190,442,24.200001,55.500000,981.440002
01/01/2000,00:26:49.475,-833,314,-1193,2148,217,-267,543,-174,454,24.200001,55.500000,981.440002
01/01/2000,00:26:49.485,-914,293,-946,2821,290,-159,540,-160,442,24.200001,55.500000,981.440002
01/01/2000,00:26:49.494,-798,523,248,2866,2139,-41,558,-142,472,24.200001,55.500000,981.440002
01/01/2000,00:26:49.503,-1032,1208,1927,1093,2838,-194,556,-144,484,24.200001,55.500000,981.440002
01/01/2000,00:26:49.513,-1422,1202,1608,687,145,-522,520,-133,499,24.200001,55.500000,981.440002
01/01/2000,00:26:49.522,-1202,152,78,1836,-1497,-533,526,-133,496,24.200001,55.500000,981.440002
01/01/2000,00:26:49.532,-977,-604,-406,2343,-1517,-215,555,-118,498,24.200001,55.500000,981.440002
01/01/2000,00:26:49.541,-871,-784,-422,2343,-1517,-215,556,-88,496,24.200001,55.500000,981.440002
01/01/2000,00:26:49.550,-802,-792,-472,1912,-1139,95,555,-97,495,24.200001,55.500000,981.440002
01/01/2000,00:26:49.559,-769,-860,-476,1178,-554,111,555,-97,495,24.200001,55.500000,981.440002
01/01/2000,00:26:49.568,-867,-1047,-349,809,270,-126,549,-75,468,24.200001,55.500000,981.440002
01/01/2000,00:26:49.578,-1077,-1349,64,965,1274,-456,552,-84,496,24.200001,55.500000,981.440002
01/01/2000,00:26:49.588,-1303,-1571,601,1145,1867,-620,523,-72,528,24.200001,55.500000,981.440002
01/01/2000,00:26:49.597,-1408,-1437,589,940,1310,-328,523,-72,528,24.200001,55.500000,981.440002
01/01/2000,00:26:49.606,-1252,-1088,173,548,161,11,529,-60,522,24.200001,55.500000,981.440002
01/01/2000,00:26:49.616,-1099,-833,22,233,-370,100,534,-63,525,24.200001,55.500000,981.440002
01/01/2000,00:26:49.625,-1099,-708,22,28,-590,294,553,-63,526,24.200001,55.500000,981.440002
01/01/2000,00:26:49.635,-1114,-709,48,-87,-828,469,528,-75,513,24.200001,55.500000,981.440002
01/01/2000,00:26:49.644,-1116,-667,27,-327,-979,536,555,-64,513,24.200001,55.500000,981.440002
01/01/2000,00:26:49.653,-1067,-637,-42,-679,-1169,601,555,-64,513,24.200001,55.500000,981.440002
01/01/2000,00:26:49.663,-971,-582,-108,-1021,-1359,712,549,-76,493,24.200001,55.500000,981.440002
01/01/2000,00:26:49.672,-855,-517,-124,-1333,-1326,844,543,-91,492,24.200001,55.500000,981.440002
01/01/2000,00:26:49.681,-716,-498,-105,-1629,-963,1046,568,-88,483,24.200001,55.500000,981.440002
01/01/2000,00:26:49.691,-841,-455,33,-1786,-6,1357,562,-124,495,24.200001,55.500000,981.440002
01/01/2000,00:26:49.700,-1337,-192,436,-1652,24,1545,561,-127,466,24.200001,55.500000,981.440002
01/01/2000,00:26:49.710,-1667,128,576,-1699,-965,1440,538,-153,456,24.200001,55.500000,981.440002
01/01/2000,00:26:49.719,-1712,201,151,-2010,-1670,1374,553,-163,445,24.200001,55.500000,981.440002
01/01/2000,00:26:49.728,-1782,113,-371,-2191,-1632,1389,564,-181,436,24.200001,55.500000,981.440002
01/01/2000,00:26:49.737,-1963,151,-635,-2126,-1189,1253,564,-181,436,24.200001,55.500000,981.440002
01/01/2000,00:26:49.746,-2214,464,-564,-1761,-703,773,553,-186,433,24.200001,55.500000,981.440002
01/01/2000,00:26:49.756,-2566,1034,-134,-1399,-698,-157,565,-205,402,24.200001,55.500000,981.440002
01/01/2000,00:26:49.766,-2617,1604,-95,-564,-1221,-1042,553,-196,372,24.200001,55.500000,981.440002
01/01/2000,00:26:49.775,-2321,2045,-212,991,-1441,-1384,552,-210,375,24.200001,55.500000,981.440002
01/01/2000,00:26:49.784,-1599,1936,75,2405,-1864,-1186,564,-177,397,24.200001,55.500000,981.440002
01/01/2000,00:26:49.794,-750,910,372,2320,-1825,-52,589,-184,361,24.200001,55.500000,981.440002
01/01/2000,00:26:49.803,-689,190,311,1454,-1444,761,588,-177,360,24.200001,55.500000,981.440002
01/01/2000,00:26:49.813,-890,149,80,1456,-978,757,591,-199,367,24.200001,55.500000,981.440002
01/01/2000,00:26:49.822,-862,82,132,1599,-771,550,585,-198,357,24.200001,55.500000,981.440002
01/01/2000,00:26:49.834,-747,-19,169,1697,-799,420,585,-198,357,24.200001,55.500000,981.440002
01/01/2000,00:26:49.841,-621,-138,191,1703,-925,540,576,-189,349,24.200001,55.500000,981.440002
01/01/2000,00:26:49.850,-555,-243,192,1487,-1022,804,577,-183,361,24.200001,55.500000,981.440002
01/01/2000,00:26:49.859,-519,-324,132,1108,-958,1074,585,-177,345,24.200001,55.500000,981.440002
01/01/2000,00:26:49.869,-486,-375,56,713,-867,1218,583,-205,360,24.200001,55.500000,981.440002
01/01/2000,00:26:49.878,-416,-427,3,266,-699,1244,574,-202,349,24.200001,55.500000,981.440002
01/01/2000,00:26:49.888,-357,-473,-30,-324,-586,1226,576,-210,336,24.200001,55.500000,981.440002
01/01/2000,00:26:49.897,-368,-470,-86,-324,-586,1226,568,-219,340,24.200001,55.500000,981.440002
01/01/2000,00:26:49.906,-406,-442,-155,-901,-543,1148,549,-226,325,24.200001,55.500000,981.440002
01/01/2000,00:26:49.915,-411,-446,-200,-1334,-620,955,549,-226,325,24.200001,55.500000,981.440002
01/01/2000,00:26:49.924,-371,-466,-183,-1555,-783,775,558,-232,318,24.200001,55.500000,981.440002
01/01/2000,00:26:49.934,-315,-467,-128,-1567,-1063,694,552,-231,310,24.200001,55.500000,981.440002
01/01/2000,00:26:49.944,-295,-462,-85,-1380,-1341,636,555,-249,288,24.200001,55.500000,981.440002
01/01/2000,00:26:49.953,-333,-449,-35,-1135,-1403,522,561,-259,279,24.200001,55.500000,981.440002
01/01/2000,00:26:49.962,-406,-412,26,-1044,-1023,287,556,-267,261,24.200001,55.500000,981.440002
01/01/2000,00:26:49.972,-406,-287,26,-1235,-239,-115,555,-249,249,24.200001,55.500000,981.440002
01/01/2000,00:26:49.981,-510,-283,76,-1511,603,-616,567,-247,276,24.200001,55.500000,981.440002
01/01/2000,00:26:49.991,-614,-90,167,-1541,951,-1068,564,-241,246,24.200001,55.500000,981.440002
01/01/2000,00:26:49.999,-604,36,366,-1314,753,-1413,564,-241,246,24.200001,55.500000,981.440002
01/01/2000,00:26:50.009,-496,82,683,-1186,322,-1522,562,-235,252,24.200001,55.500000,981.440002
01/01/2000,00:26:50.019,-418,102,1026,-1237,-95,-1407,574,-235,246,24.200001,55.500000,981.440002
01/01/2000,00:26:50.028,-317,-79,1292,-1239,-237,-1118,592,-214,250,24.200001,55.500000,981.440002
01/01/2000,00:26:50.037,-584,-578,1520,-978,-316,-732,594,-202,249,24.200001,55.500000,981.440002
01/01/2000,00:26:50.047,-1579,-550,955,-487,1216,-1206,589,-205,250,24.200001,55.500000,981.440002
01/01/2000,00:26:50.056,-2337,-175,681,482,2584,-1324,591,-178,264,24.200001,55.500000,981.440002
01/01/2000,00:26:50.066,-2559,-45,1551,1290,1823,-377,612,-177,258,24.200001,55.500000,981.440002
01/01/2000,00:26:50.078,-2401,140,1935,1086,456,303,601,-178,286,24.200001,55.500000,981.440002
01/01/2000,00:26:50.084,-1633,282,1260,489,-676,498,595,-184,282,24.200001,55.500000,981.440002
01/01/2000,00:26:50.093,-749,320,167,407,-1172,507,595,-184,282,24.200001,55.500000,981.440002
01/01/2000,00:26:50.102,-191,285,-641,752,-614,518,610,-192,295,24.200001,55.500000,981.440002
01/01/2000,00:26:50.112,-88,340,-962,1170,791,467,589,-207,288,24.200001,55.500000,981.440002
01/01/2000,00:26:50.122,-305,524,-843,1457,2071,57,595,-187,294,24.200001,55.500000,981.440002
01/01/2000,00:26:50.131,-566,629,-511,1465,2741,-483,589,-195,303,24.200001,55.500000,981.440002
01/01/2000,00:26:50.140,-827,764,-170,1150,2567,-1016,595,-190,352,24.200001,55.500000,981.440002
01/01/2000,00:26:50.150,-1068,870,-67,857,1850,-1493,586,-196,351,24.200001,55.500000,981.440002
01/01/2000,00:26:50.159,-1214,669,-386,368,1514,-1480,588,-175,364,24.200001,55.500000,981.440002
01/01/2000,00:26:50.169,-1477,491,-772,-86,1388,-1119,607,-157,391,24.200001,55.500000,981.440002
01/01/2000,00:26:50.178,-1840,359,-890,-506,585,-715,589,-156,397,24.200001,55.500000,981.440002
01/01/2000,00:26:50.187,-1845,97,-1003,-1028,-107,-473,589,-156,397,24.200001,55.500000,981.440002
01/01/2000,00:26:50.196,-1520,-142,-1041,-1454,-203,-246,612,-159,396,24.200001,55.500000,981.440002
01/01/2000,00:26:50.206,-1198,-305,-920,-1746,-57,22,604,-157,375,24.200001,55.500000,981.440002
01/01/2000,00:26:50.215,-1030,-403,-768,-1956,226,188,618,-145,385,24.200001,55.500000,981.440002
01/01/2000,00:26:50.225,-946,-630,-519,-723,-645,396,600,-159,385,24.200001,55.500000,981.440002
01/01/2000,00:26:50.234,-895,-870,-316,1860,-736,252,585,-166,382,24.200001,55.500000,981.440002
01/01/2000,00:26:50.244,-879,-960,36,2795,259,-385,609,-175,358,24.200001,55.500000,981.440002
01/01/2000,00:26:50.253,-750,-829,579,2795,259,-385,607,-154,379,24.200001,55.500000,981.440002
01/01/2000,00:26:50.262,-674,-473,804,2657,1046,-658,616,-148,408,24.200001,55.500000,981.440002
01/01/2000,00:26:50.275,-731,-147,636,1947,1269,-544,595,-147,420,24.200001,55.500000,981.440002
01/01/2000,00:26:50.280,-776,-75,524,1188,1288,-469,595,-147,420,24.200001,55.500000,981.440002
01/01/2000,00:26:50.290,-719,-201,478,388,1214,-453,606,-129,421,24.200001,54.799999,981.400024
01/01/2000,00:26:50.300,-655,-171,341,-437,892,-243,603,-132,435,24.200001,54.799999,981.400024
01/01/2000,00:26:50.309,-651,-45,299,-968,707,-70,583,-129,441,24.200001,54.799999,981.400024
01/01/2000,00:26:50.319,-651,38,299,-1222,689,47,604,-144,442,24.200001,54.799999,981.400024
01/01/2000,00:26:50.328,-733,38,285,-1249,724,93,600,-150,430,24.200001,54.799999,981.400024
01/01/2000,00:26:50.337,-843,37,180,-1141,479,72,591,-153,445,24.200001,54.799999,981.400024
01/01/2000,00:26:50.347,-897,-36,-5,-989,78,17,582,-156,444,24.200001,54.799999,981.400024
01/01/2000,00:26:50.356,-891,-69,-239,-692,-266,-61,585,-145,427,24.200001,54.799999,981.400024
01/01/2000,00:26:50.365,-873,46,-719,187,-209,-121,585,-145,427,24.200001,54.799999,981.400024
01/01/2000,00:26:50.375,-907,248,-1232,2193,67,-327,576,-148,457,24.200001,54.799999,981.400024
01/01/2000,00:26:50.384,-890,302,-1201,2843,333,-404,576,-148,457,24.200001,54.799999,981.400024
01/01/2000,00:26:50.393,-552,220,-520,2866,867,-314,591,-118,448,24.200001,54.799999,981.400024
01/01/2000,00:26:50.403,-524,616,1870,1367,2406,113,567,-100,508,24.200001,54.799999,981.400024
01/01/2000,00:26:50.412,-1240,1070,2695,-576,1172,-486,559,-109,511,24.200001,54.799999,981.400024
01/01/2000,00:26:50.425,-1408,407,730,114,-930,-858,559,-85,499,24.200001,54.799999,981.400024
01/01/2000,00:26:50.431,-1053,-430,-386,1210,-1544,-550,576,-91,496,24.200001,54.799999,981.400024
01/01/2000,00:26:50.440,-915,-609,-528,1253,-1356,-163,594,-76,469,24.200001,54.799999,981.400024
01/01/2000,00:26:50.449,-889,-602,-454,619,-1079,0,594,-76,469,24.200001,54.799999,981.400024
01/01/2000,00:26:50.458,-970,-651,-435,-60,-698,-116,583,-84,468,24.200001,54.799999,981.400024
01/01/2000,00:26:50.468,-1045,-809,-498,-269,-109,-266,577,-94,478,24.200001,54.799999,981.400024
01/01/2000,00:26:50.478,-1128,-1068,-570,536,1278,-396,591,-81,463,24.200001,54.799999,981.400024
01/01/2000,00:26:50.487,-1355,-1397,-245,1647,2284,-345,594,-69,472,24.200001,54.799999,981.400024
01/01/2000,00:26:50.497,-1642,-1715,455,2280,1718,-123,568,-67,511,24.200001,54.799999,981.400024
01/01/2000,00:26:50.506,-1705,-1652,1273,1655,22,35,589,-64,519,24.200001,54.799999,981.400024
01/01/2000,00:26:50.515,-1551,-1148,1275,-97,-1423,176,577,-42,510,24.200001,54.799999,981.400024
01/01/2000,00:26:50.525,-1431,-772,446,-1143,-1649,125,586,-60,487,24.200001,54.799999,981.400024
01/01/2000,00:26:50.534,-1316,-696,-56,-1317,-1108,2,583,-48,490,24.200001,54.799999,981.400024
01/01/2000,00:26:50.543,-1137,-692,-86,-1291,-803,-27,583,-48,490,24.200001,54.799999,981.400024
01/01/2000,00:26:50.552,-977,-631,-30,-1364,-998,100,597,-51,483,24.200001,54.799999,981.400024
01/01/2000,00:26:50.562,-836,-542,-36,-1532,-1291,240,594,-64,483,24.200001,54.799999,981.400024
01/01/2000,00:26:50.571,-730,-443,-70,-1802,-1517,339,576,-76,463,24.200001,54.799999,981.400024
01/01/2000,00:26:50.581,-622,-340,-124,-2038,-1521,421,594,-81,441,24.200001,54.799999,981.400024
01/01/2000,00:26:50.590,-488,-263,-158,-2120,-1234,596,601,-99,435,24.200001,54.799999,981.400024
01/01/2000,00:26:50.600,-477,-223,-190,-2120,-1234,596,607,-105,430,24.200001,54.799999,981.400024
01/01/2000,00:26:50.609,-680,-134,-176,-2193,-737,952,600,-124,414,24.200001,54.799999,981.400024
01/01/2000,00:26:50.618,-958,-24,-91,-2390,-327,1262,600,-118,427,24.200001,54.799999,981.400024
01/01/2000,00:26:50.627,-1174,8,-87,-2643,-363,1279,612,-157,385,24.200001,54.799999,981.400024
01/01/2000,00:26:50.636,-1418,60,-211,-2687,-810,1304,612,-157,385,24.200001,54.799999,981.400024
01/01/2000,00:26:50.646,-1418,60,-211,-2339,-1234,1374,609,-168,375,24.200001,54.799999,981.400024
