F1_MEAN_on_ACC_X,F5_VAR_on_ACC_X,F9_MIN_on_ACC_X,F13_MAX_on_ACC_X,F2_MEAN_on_ACC_Y,F6_VAR_on_ACC_Y,F10_MIN_on_ACC_Y,F14_MAX_on_ACC_Y,F3_MEAN_on_ACC_Z,F7_VAR_on_ACC_Z,F11_MIN_on_ACC_Z,F15_MAX_on_ACC_Z,F4_MEAN_on_ACC_V,F8_VAR_on_ACC_V,F12_MIN_on_ACC_V,F16_MAX_on_ACC_V,class
-0.0006153846153846154,8.328402366863901e-07,-0.003,0.002,0.02155769230769231,2.169748520709715e-06,0.018,0.025,0.9912500000000001,1.918269229905789e-06,0.988,0.995,0.9914860865289108,1.936373431377092e-06,0.9882676762901841,0.9952662960233307,Mirovanje
-0.0010961538461538463,1.1446005917159727e-06,-0.004,0.002,0.021913461538461538,2.213664940827972e-06,0.018,0.025,0.9917115384615385,2.089866862675649e-06,0.988,0.995,0.9919559117196474,2.094204442637526e-06,0.988245414864142,0.995245195919076,Mirovanje
-0.0006153846153846154,1.1982248520710053e-06,-0.004,0.002,0.02109615384615384,1.8561390532537787e-06,0.017,0.026,0.9916538461538462,1.6878698213540488e-06,0.989,0.996,0.9918799490453065,1.6859126500401445e-06,0.9892022037985965,0.9962429422585638,Mirovanje
-0.0005192307692307693,1.2303994082840227e-06,-0.004,0.002,0.02172115384615384,1.854937130177359e-06,0.018,0.026,0.9916634615384615,1.4925110933816654e-06,0.989,0.995,0.9919030045192532,1.5065487557475166e-06,0.9891824907467782,0.9952894051480705,Mirovanje
-0.0010096153846153846,1.1056767751479273e-06,-0.004,0.001,0.021355769230769227,2.6715051775146634e-06,0.017,0.025,0.9917788461538461,1.6722448210604313e-06,0.989,0.996,0.9920111520474486,1.691521185565037e-06,0.9891466018745654,0.9962027906003877,Mirovanje
-0.0007403846153846155,2.4037536982248522e-06,-0.005,0.003,0.021615384615384613,2.4097633136095143e-06,0.018,0.026,0.9917115384615385,3.2437130171869555e-06,0.986,0.995,0.9919497674007285,3.2647228720428245e-06,0.9862256334125573,0.995245195919076,Mirovanje
-0.000903846153846154,1.2792159763313592e-06,-0.004,0.002,0.02183653846153846,2.3675110946743674e-06,0.018,0.025,0.9912692307692308,2.927514791695174e-06,0.983,0.994,0.9915119879952421,2.89112326101737e-06,0.9832695459537023,0.9942901990867656,Mirovanje
-0.0005096153846153846,1.7691383136094657e-06,-0.003,0.004,0.021644230769230763,2.4407359467453686e-06,0.018,0.025,0.9916346153846154,1.712647927476496e-06,0.987,0.995,0.9918730533059521,1.7115101436093738e-06,0.9872233789776252,0.9952657936450946,Mirovanje
-0.0006057692307692309,1.2388128698224843e-06,-0.003,0.002,0.02154807692307692,2.3246116863903958e-06,0.018,0.024,0.9916153846153848,1.6982248507435571e-06,0.988,0.995,0.9918514694499779,1.6817806891555875e-06,0.9882681822258572,0.9952055064156348,Mirovanje
-0.0008269230769230769,1.7392751479289944e-06,-0.004,0.003,0.02142307692307692,1.974852071005514e-06,0.018,0.025,0.9917019230769231,4.651534762811771e-06,0.985,0.998,0.9919354998104336,4.666138902265082e-06,0.9852030247619016,0.9982424555186982,Mirovanje
-0.0005673076923076924,1.3416235207100584e-06,-0.004,0.003,0.021759615384615384,2.2595229289937876e-06,0.018,0.025,0.9920384615384615,5.440828401370723e-06,0.986,1.001,0.9922790465078032,5.44770771881975e-06,0.986223605476973,1.0012202554882714,Mirovanje
-0.0008076923076923077,1.5976331360946734e-06,-0.004,0.002,0.021249999999999998,1.8413461538458603e-06,0.018,0.025,0.9915673076923076,3.995469673445662e-06,0.985,0.997,0.9917970576620968,3.971412807168839e-06,0.9852456546465963,0.997221138965676,Mirovanje
-0.0011442307692307693,1.9695821005917173e-06,-0.006,0.003,0.021663461538461534,2.492511094674438e-06,0.018,0.025,0.9918750000000001,1.9939903838084305e-06,0.989,0.996,0.9921144624235307,1.979988530687038e-06,0.9892446613452104,0.9961626373238458,Mirovanje
-0.0008173076923076924,1.4377773668639038e-06,-0.004,0.002,0.021826923076923074,2.5277366863901652e-06,0.019,0.027,0.9915673076923077,1.533931211827877e-06,0.988,0.995,0.991809846813995,1.5354551073931688e-06,0.9882676762901841,0.9952894051480705,Mirovanje
-0.0008365384615384616,1.2328957100591703e-06,-0.005,0.001,0.021846153846153845,2.360946745561855e-06,0.018,0.026,0.9918365384615384,2.002126478162225e-06,0.988,0.995,0.992079253095979,2.024807293277142e-06,0.9882251767689386,0.9952477078597066,Mirovanje
-0.001096153846153846,1.4330621301775133e-06,-0.003,0.002,0.02160576923076923,2.5080436390530073e-06,0.017,0.025,0.9916153846153846,2.1597633134140537e-06,0.988,0.995,0.9918533300649374,2.154331401937881e-06,0.9882236588950905,0.9952431863620067,Mirovanje
-0.0007980769230769233,1.6419193786982233e-06,-0.004,0.002,0.021269230769230766,1.9852071005913713e-06,0.018,0.025,0.9920192307692309,2.961168637849454e-06,0.987,0.996,0.9922493570092754,2.973130064143348e-06,0.9872233789776252,0.996273556810578,Mirovanje
-0.0011442307692307693,1.4503513313609454e-06,-0.004,0.001,0.021259615384615384,2.307599852070688e-06,0.017,0.025,0.9917403846153847,2.4229844662881916e-06,0.988,0.996,0.9919707832875176,2.4170270254142423e-06,0.988245414864142,0.9962429422585638,Mirovanje
-0.0005384615384615384,9.98520710059171e-07,-0.003,0.002,0.021721153846153845,1.9126294378691948e-06,0.018,0.025,0.9918653846153845,6.481878697117693e-06,0.985,1.001,0.992104798177164,6.502126156493482e-06,0.9852461621341135,1.0012647002666175,Mirovanje
-0.0006538461538461539,1.1686390532544369e-06,-0.004,0.001,0.021682692307692306,2.1973927514790776e-06,0.017,0.025,0.9917211538461539,6.278014052951697e-06,0.985,0.999,0.9919600794043301,6.258560462879537e-06,0.9852456546465963,0.9992887470596274,Mirovanje
-0.0009903846153846154,2.1056767751479302e-06,-0.006,0.002,0.02169230769230769,1.9630177514789516e-06,0.019,0.025,0.9917115384615385,2.6475591700103607e-06,0.987,0.998,0.9919512925821616,2.6619907325109438e-06,0.98720311993024,0.9982389493503045,Mirovanje
-0.0006730769230769232,1.3738905325443773e-06,-0.003,0.002,0.02156730769230769,2.1877773668637084e-06,0.017,0.025,0.9915096153846152,2.0768306203677867e-06,0.988,0.996,0.9917461764411379,2.079206690930313e-06,0.988244908916813,0.9962936314159596,Mirovanje
-0.0005865384615384615,1.2232803254437865e-06,-0.004,0.002,0.021759615384615384,2.7402921597626277e-06,0.018,0.025,0.9916442307692308,2.825351330781878e-06,0.984,0.997,0.991885111879514,2.8190625330770658e-06,0.9842459042332866,0.997265761971201,Mirovanje
-0.0006634615384615386,1.12712647928994e-06,-0.003,0.003,0.021307692307692305,2.6745562130173033e-06,0.017,0.026,0.9917692307692308,3.7159763298655335e-06,0.987,0.998,0.992000236920913,3.7126411600585385e-06,0.9872238854484833,0.9982003806851608,Mirovanje
-0.0007115384615384616,1.589866863905324e-06,-0.004,0.003,0.02156730769230769,1.6493158284020567e-06,0.019,0.024,0.9917692307692308,3.081360945622613e-06,0.987,0.996,0.9920055876044361,3.0968538856646077e-06,0.9872238854484833,0.9962233685273599,Mirovanje
-0.0006057692307692308,1.2195821005917154e-06,-0.004,0.002,0.021788461538461538,1.5706360946741668e-06,0.019,0.025,0.9918942307692308,1.6907359450257786e-06,0.99,0.996,0.9921351034606798,1.686481066021095e-06,0.9901828114040356,0.9962434441440505,Mirovanje
-0.0012788461538461538,1.3357063609467448e-06,-0.004,0.002,0.021490384615384613,1.749907544378352e-06,0.019,0.025,0.9915769230769234,1.7248520697288328e-06,0.989,0.995,0.991812148115494,1.7397736057356283e-06,0.9892234327996886,0.9952431863620067,Mirovanje
-0.0010480769230769233,1.468842455621301e-06,-0.005,0.002,0.021249999999999998,2.2836538461534404e-06,0.017,0.025,0.9913942307692307,1.5849667148737367e-06,0.989,0.996,0.9916243941562958,1.5801449285701707e-06,0.9892022037985965,0.9962509723960122,Mirovanje
-0.0007596153846153847,1.29798446745562e-06,-0.004,0.001,0.021394230769230766,2.3349667159760904e-06,0.017,0.025,0.9918365384615385,1.2136649399918653e-06,0.989,0.994,0.9920693721132382,1.2166840759331166e-06,0.9892067529086122,0.994291707699506,Mirovanje
-0.0007500000000000001,1.4374999999999985e-06,-0.004,0.003,0.02175,1.6490384615377171e-06,0.019,0.025,0.9917307692307694,1.8121301764706388e-06,0.988,0.995,0.9919710759260748,1.8268337578231097e-06,0.9882024084164134,0.9952657936450946,Mirovanje
-0.0010192307692307692,1.8842455621301796e-06,-0.005,0.002,0.021288461538461534,1.839866863905101e-06,0.018,0.025,0.9918653846153848,2.251109466278045e-06,0.988,0.995,0.9920962121832095,2.259617882471865e-06,0.9882029143855021,0.9952235929679321,Mirovanje
-0.0009615384615384616,1.2292899408284014e-06,-0.004,0.001,0.0215,1.6538461538457812e-06,0.019,0.025,0.9916826923076922,1.5820081351591853e-06,0.989,0.995,0.9919176438797233,1.5896831757622465e-06,0.9891829962145529,0.9953140207994661,Mirovanje
-0.0006153846153846154,1.102071005917159e-06,-0.003,0.002,0.021009615384615384,1.5864460059168044e-06,0.017,0.024,0.9919807692307692,1.9419378688434463e-06,0.989,0.996,0.9922047704441831,1.953123190734374e-06,0.9891845126163268,0.9962233685273599,Mirovanje
-0.0007980769230769232,1.5265347633136086e-06,-0.005,0.002,0.021490384615384613,2.615292159762828e-06,0.018,0.026,0.9917019230769231,1.651534761615281e-06,0.989,0.995,0.9919371496434901,1.662310994188232e-06,0.9891870399474509,0.9952220857677949,Mirovanje
-0.0006634615384615386,9.155880177514785e-07,-0.003,0.001,0.02154807692307692,1.7476886094670505e-06,0.019,0.025,0.9918942307692309,2.5176590227049545e-06,0.987,0.995,0.9921298264643224,2.5132091047153082e-06,0.987182860467097,0.9952678031565173,Mirovanje
-0.0008173076923076924,1.4762389053254425e-06,-0.004,0.002,0.02133653846153846,2.2040495562125487e-06,0.017,0.024,0.9919519230769231,1.8342270701188212e-06,0.989,0.995,0.9921835605892285,1.8301734037162731e-06,0.9891637882575363,0.9952014871371525,Mirovanje
-0.0007596153846153847,1.2979844674556203e-06,-0.004,0.002,0.021980769230769227,2.2496301775147835e-06,0.018,0.026,0.9920865384615385,2.0405880167828627e-06,0.989,0.996,0.9923320806696929,2.0609045275898907e-06,0.9892916657892151,0.9962936314159596,Mirovanje
-0.0006346153846153846,1.0588017751479285e-06,-0.003,0.002,0.021317307692307687,2.082008136094159e-06,0.018,0.026,0.9919807692307692,1.9803994072420394e-06,0.989,0.995,0.9922115669912148,2.0044057605916876e-06,0.9892249491394766,0.9952894051480705,Mirovanje
-0.0010192307692307692,1.6919378698224841e-06,-0.004,0.001,0.021932692307692306,2.0627773668636918e-06,0.019,0.026,0.9917115384615385,1.5514053242071668e-06,0.988,0.994,0.9919564530305441,1.5587526004390284e-06,0.988244908916813,0.9943188623374295,Mirovanje
-0.0006346153846153846,1.0395710059171587e-06,-0.003,0.001,0.021721153846153845,2.2395525147924527e-06,0.018,0.025,0.9917403846153845,1.788369082267316e-06,0.988,0.995,0.991980081627578,1.7868849132574027e-06,0.9881872292232884,0.9953140207994661,Mirovanje
-0.0005769230769230769,1.1863905325443785e-06,-0.005,0.001,0.021711538461538456,2.0321745562128647e-06,0.019,0.025,0.9917499999999999,1.5336538454757687e-06,0.989,0.994,0.9919894210691028,1.5269485248436965e-06,0.9892022037985965,0.9942705869128383,Mirovanje
-0.0008461538461538462,1.6686390532544374e-06,-0.004,0.003,0.02142307692307692,1.8594674556208124e-06,0.018,0.025,0.9914423076923077,1.2659023657102253e-06,0.989,0.994,0.991675879381812,1.257944617694129e-06,0.9892022037985965,0.9942439338512455,Mirovanje
-0.0006346153846153846,1.308801775147927e-06,-0.004,0.003,0.02147115384615384,1.9030140532540966e-06,0.017,0.025,0.9917980769230769,1.7380732233451823e-06,0.989,0.996,0.9920322760073004,1.7518213142331263e-06,0.9892027092562979,0.9962429422585638,Mirovanje
-0.0006153846153846154,1.4097633136094663e-06,-0.004,0.002,0.020980769230769226,1.6150147928990603e-06,0.018,0.025,0.9915961538461538,1.3561390521665828e-06,0.989,0.994,0.9918197991540911,1.3706213226605257e-06,0.9891870399474509,0.9943143366159416,Mirovanje
-0.00015384615384615385,5.53254437869822e-07,-0.002,0.003,0.02192307692307692,1.628698224851626e-06,0.019,0.025,0.9918942307692309,1.5945821002505411e-06,0.989,0.995,0.9921375846755155,1.599612696301378e-06,0.9892234327996886,0.9952899075143885,Mirovanje
-0.0005192307692307693,1.7111686390532528e-06,-0.005,0.003,0.021807692307692306,2.4822485207100274e-06,0.018,0.026,0.992076923076923,2.301775147373064e-06,0.988,0.996,0.9923188159091688,2.3291310862205705e-06,0.9881831813990765,0.9963142074667007,Mirovanje
-0.000625,1.4843749999999992e-06,-0.004,0.002,0.022057692307692302,2.16974852071004e-06,0.019,0.027,0.9919038461538463,1.6446005896009197e-06,0.989,0.994,0.9921511135817211,1.6389723969112424e-06,0.9892674057099021,0.9942439338512455,Mirovanje
-0.0006442307692307692,1.1907359467455614e-06,-0.003,0.002,0.021413461538461534,1.4925110946740886e-06,0.019,0.024,0.9916153846153846,1.4482248510416795e-06,0.989,0.994,0.9918481244146025,1.4519413894520383e-06,0.9892229273525761,0.9942665638549856,Mirovanje
-0.0004519230769230769,1.1323039940828394e-06,-0.003,0.003,0.021884615384615384,1.6597633136086016e-06,0.019,0.025,0.9918461538461538,1.5724852061582695e-06,0.989,0.996,0.9920890725587989,1.5701863456119014e-06,0.9892234327996886,0.996244949798994,Mirovanje
-0.0008365384615384616,1.0598187869822471e-06,-0.004,0.001,0.02183653846153846,2.6944341715974627e-06,0.018,0.025,0.9916250000000001,1.0997596144868282e-06,0.989,0.994,0.9918676384422951,1.1166570587084479e-06,0.9892234327996886,0.9942665638549856,Mirovanje
-0.5023269230769232,0.2424137585059169,-0.988,0.002,0.024298076923076926,1.067076553254464e-05,0.018,0.03,0.4756346153846155,0.2564758472633136,-0.024,0.994,0.9889592224433392,1.0954421189035557e-05,0.9835679945992549,0.9942660609716094,Mirovanje
-0.9853461538461539,2.7263313604475314e-06,-0.989,-0.982,0.027182692307692317,1.9954696745550773e-06,0.023,0.03,-0.020932692307692305,1.562777366863517e-06,-0.024,-0.018,0.985945084946988,2.6933150308883214e-06,0.9825746790956909,0.9895862771886037,Mirovanje
-0.985701923076923,1.6515347628365262e-06,-0.99,-0.983,0.027211538461538468,2.7052514792895227e-06,0.024,0.032,-0.020259615384615383,1.3075998520706636e-06,-0.023,-0.017,0.9862875854441152,1.6641834319486293e-06,0.983521224987036,0.9906472631567707,Mirovanje
-0.9849134615384615,2.1944341709323467e-06,-0.988,-0.981,0.026721153846153853,1.9510909763308885e-06,0.023,0.03,-0.020326923076923076,1.7008136094668952e-06,-0.025,-0.017,0.9854873831204943,2.1946333966793574e-06,0.9814733822167568,0.9886278369538256,Mirovanje
-0.985125,2.6670673074491447e-06,-0.989,-0.982,0.02702884615384616,2.066475591715319e-06,0.023,0.03,-0.020413461538461537,9.925110946741307e-07,-0.023,-0.018,0.9857086734803147,2.6706410630739086e-06,0.98260266639166,0.9896408439428923,Mirovanje
-0.9855769230769231,2.359467455415043e-06,-0.989,-0.982,0.026903846153846164,1.7792159763304997e-06,0.024,0.032,-0.020557692307692308,1.6120562130173249e-06,-0.024,-0.018,0.9861600750508333,2.364068042437495e-06,0.9824968193332739,0.9896272025363895,Mirovanje
-0.985625,1.6574519223766515e-06,-0.989,-0.982,0.026894230769230774,1.6330436390533248e-06,0.023,0.03,-0.02027884615384615,1.393398668638932e-06,-0.023,-0.018,0.9862018989588592,1.670259170971633e-06,0.982527862200355,0.9895706139533449,Mirovanje
-0.9854903846153846,1.9229844668844365e-06,-0.989,-0.982,0.026721153846153853,2.2972448224848306e-06,0.022,0.03,-0.02053846153846154,2.0177514792894314e-06,-0.024,-0.017,0.9860686881425317,1.926880250469054e-06,0.9825685726706305,0.9895862771886037,Mirovanje
-0.9855769230769231,2.3594674553040207e-06,-0.989,-0.981,0.026625000000000006,2.0805288461538335e-06,0.024,0.03,-0.020576923076923073,1.3786982248517555e-06,-0.024,-0.017,0.986152959524352,2.330805976780148e-06,0.9814973255185161,0.989669641850249,Mirovanje
-0.9852403846153847,2.1633690819866658e-06,-0.989,-0.982,0.027048076923076928,2.4688424556206087e-06,0.023,0.031,-0.02015384615384615,1.4955621301772164e-06,-0.023,-0.017,0.9858196311485354,2.174072935234861e-06,0.9825955424283177,0.9895509082407029,Mirovanje
-0.9851346153846154,1.7318786973419265e-06,-0.988,-0.981,0.02663461538461539,2.328032544378334e-06,0.024,0.031,-0.020346153846153844,1.0917159763309506e-06,-0.023,-0.018,0.9857063415116555,1.73907293832265e-06,0.9814774577136247,0.9885711911642985,Mirovanje
-0.9856153846153846,1.8136094669385372e-06,-0.989,-0.982,0.025971153846153852,1.2395525147929163e-06,0.023,0.029,-0.020499999999999997,1.076923076922707e-06,-0.023,-0.017,0.986171767930495,1.8114445342609642e-06,0.9825746790956909,0.9895387814532587,Mirovanje
-0.9857788461538461,2.249167899148752e-06,-0.99,-0.982,0.02625961538461539,1.903753698224422e-06,0.023,0.029,-0.020394230769230765,1.6234282544376846e-06,-0.024,-0.017,0.9863411861002765,2.266525376382056e-06,0.9825904538514507,0.9905432852732887,Mirovanje
-0.9855192307692308,2.653476330993776e-06,-0.99,-0.981,0.026365384615384624,1.9434171597628065e-06,0.023,0.03,-0.020730769230769226,1.7159763313604913e-06,-0.024,-0.018,0.9860916321921042,2.6583053269746415e-06,0.9815834146928115,0.9905700379074667,Mirovanje
-0.9854903846153846,2.096061389789128e-06,-0.99,-0.983,0.026721153846153853,1.9510909763308885e-06,0.022,0.03,-0.020288461538461533,1.3398668639053057e-06,-0.023,-0.017,0.986062992049021,2.102634408363002e-06,0.9834724195421038,0.9906124368288539,Mirovanje
-0.9851538461538462,2.2071005914003905e-06,-0.988,-0.981,0.026471153846153856,2.0568602071003835e-06,0.023,0.03,-0.020701923076923073,1.343842455620893e-06,-0.023,-0.018,0.9857285604663206,2.205080995354436e-06,0.9815401163477732,0.9886136758107285,Mirovanje
-0.9854807692307692,2.5188609463766554e-06,-0.989,-0.982,0.02650961538461539,2.403753698224597e-06,0.023,0.031,-0.020461538461538458,1.4792899408279966e-06,-0.025,-0.018,0.9860515641639405,2.495502153476714e-06,0.9826454090871234,0.9896130556939919,Mirovanje
-0.9852211538461538,2.691475591620751e-06,-0.99,-0.981,0.026903846153846164,1.7792159763310418e-06,0.024,0.03,-0.020432692307692308,1.2454696745558451e-06,-0.023,-0.018,0.9858017255677795,2.7078675878255964e-06,0.9815752645620202,0.9905856853397388,Mirovanje
-0.985721153846154,2.3357063603235417e-06,-0.989,-0.981,0.026519230769230778,2.326553254437683e-06,0.023,0.03,-0.020663461538461533,1.5886649408282144e-06,-0.024,-0.018,0.9862962786822809,2.342965176871381e-06,0.9815961491367007,0.9895706139533449,Mirovanje
-0.9855865384615383,2.3194341715049305e-06,-0.99,-0.981,0.026355769230769235,2.2291974852074086e-06,0.023,0.031,-0.02048076923076923,1.5188609467452598e-06,-0.024,-0.018,0.986153461260076,2.3316140027596077e-06,0.9815752645620202,0.9906689659013247,Mirovanje
-0.9853173076923076,2.2935465975315594e-06,-0.989,-0.981,0.02675961538461539,2.297984467455427e-06,0.022,0.03,-0.020682692307692305,1.0243158284020822e-06,-0.023,-0.018,0.9858992540995709,2.3242274481694025e-06,0.9814733822167568,0.9895706139533449,Mirovanje
-0.9855480769230768,1.57461168603934e-06,-0.988,-0.982,0.02625961538461539,1.980676775147701e-06,0.024,0.03,-0.020634615384615383,1.0395710059167996e-06,-0.023,-0.019,0.986115299392339,1.577842819622255e-06,0.982527862200355,0.9886414921497074,Mirovanje
-0.9852500000000001,2.072115383722206e-06,-0.989,-0.982,0.026721153846153853,2.3357063609465243e-06,0.023,0.031,-0.020903846153846148,1.4138313609464697e-06,-0.024,-0.018,0.9858358502125876,2.0514356243728216e-06,0.9825746790956909,0.9896878295705166,Mirovanje
-0.985375,2.042067306806672e-06,-0.991,-0.983,0.027048076923076928,1.9111501479284355e-06,0.024,0.03,-0.020326923076923076,1.4508136094670788e-06,-0.024,-0.018,0.9859574175101888,2.047779716463083e-06,0.9835273254973651,0.9915170195210973,Mirovanje
-0.9856442307692308,2.190735946316913e-06,-0.989,-0.981,0.026644230769230778,1.3253513313606427e-06,0.024,0.029,-0.020913461538461537,1.3098187869817484e-06,-0.024,-0.017,0.9862273981792087,2.182542207074256e-06,0.98159105537897,0.9895862771886037,Mirovanje
-0.9852211538461538,3.3837832836836057e-06,-0.991,-0.98,0.026346153846153852,1.9955621301774454e-06,0.022,0.03,-0.02060576923076923,1.0080436390528624e-06,-0.023,-0.018,0.9857902668401266,3.3767263490913635e-06,0.9805697323495153,0.991590137103027,Mirovanje
-0.9851730769230769,3.1238905326969046e-06,-0.989,-0.981,0.0265673076923077,1.5147004437868336e-06,0.024,0.03,-0.02047115384615384,1.6337832840234877e-06,-0.024,-0.018,0.9857454201475082,3.1205043662385634e-06,0.9815961491367007,0.9896272025363895,Mirovanje
-0.985423076923077,1.9748520702078665e-06,-0.989,-0.982,0.026894230769230774,2.094582100591589e-06,0.023,0.03,-0.02047115384615384,1.6914755917158656e-06,-0.024,-0.017,0.9860044649144089,1.9643996195251034e-06,0.9825217554843251,0.9896408439428923,Mirovanje
-0.9852019230769229,1.949611686202779e-06,-0.989,-0.981,0.02673076923076924,2.119822485206757e-06,0.023,0.03,-0.02044230769230769,1.535133136094317e-06,-0.023,-0.017,0.9857783362352831,1.9275784280958774e-06,0.9816531974174993,0.9895180645142361,Mirovanje
-0.9856442307692308,2.171505176673527e-06,-0.992,-0.981,0.02670192307692309,2.4976886094667163e-06,0.022,0.03,-0.020134615384615383,1.616494082839928e-06,-0.023,-0.018,0.9862134930693105,2.1768572603386716e-06,0.9815650768033671,0.9925769491580992,Mirovanje
-0.9854519230769232,2.0938424545313694e-06,-0.991,-0.982,0.02663461538461539,2.4049556213015045e-06,0.022,0.03,-0.020413461538461533,1.2232803254434254e-06,-0.024,-0.018,0.9860249677301814,2.0899357713322075e-06,0.9825828209367391,0.9915694630231409,Mirovanje
-0.9851730769230769,2.0469674550938066e-06,-0.988,-0.982,0.02700961538461539,1.8556767751471423e-06,0.024,0.031,-0.02060576923076923,1.4888128698219735e-06,-0.024,-0.017,0.9857603513919889,2.029623542454395e-06,0.9825955424283177,0.9886197448968942,Mirovanje
-0.9856346153846154,2.1741863901469927e-06,-0.989,-0.981,0.02665384615384616,1.9571005917156433e-06,0.024,0.03,-0.020451923076923076,1.3438424556209473e-06,-0.023,-0.018,0.9862087065725068,2.165926736963364e-06,0.9816623655819754,0.9896408439428923,Mirovanje
-0.9854423076923078,1.823594673378004e-06,-0.989,-0.981,0.026307692307692313,2.0784023668639785e-06,0.023,0.03,-0.02056730769230769,1.3800850591710683e-06,-0.024,-0.018,0.9860096793018986,1.8450152744486914e-06,0.9815161740898619,0.989687324360578,Mirovanje
-0.9853942307692307,1.7388128690232207e-06,-0.989,-0.982,0.026307692307692313,1.8668639053253137e-06,0.023,0.03,-0.020519230769230765,1.1919378698221645e-06,-0.023,-0.018,0.9859604440403266,1.7239416483239012e-06,0.9825426199407331,0.989543834299421,Mirovanje
-0.985346153846154,1.4571005908514678e-06,-0.988,-0.982,0.02665384615384616,2.0917159763313544e-06,0.023,0.031,-0.02065384615384615,1.8801775147926896e-06,-0.023,-0.017,0.9859249422707175,1.4889777133486604e-06,0.9825548330754879,0.9886197448968942,Mirovanje
-0.9851634615384615,2.5213572478754998e-06,-0.988,-0.981,0.026394230769230774,1.7003513313609093e-06,0.024,0.03,-0.020326923076923076,1.2969674556210088e-06,-0.024,-0.018,0.9857280963320263,2.523947793764414e-06,0.9815482667704121,0.9886197448968942,Mirovanje
-0.9855192307692308,1.7111686384518876e-06,-0.989,-0.981,0.02620192307692308,1.2957655325446975e-06,0.024,0.029,-0.020788461538461533,1.3783284023665115e-06,-0.023,-0.018,0.9860879853007865,1.7256300509638223e-06,0.9815691519195171,0.9896357915920382,Mirovanje
-0.9851730769230769,1.989275147940006e-06,-0.988,-0.982,0.026375000000000006,2.734374999999699e-06,0.022,0.032,-0.02051923076923077,9.803994082834997e-07,-0.023,-0.018,0.9857415284525489,2.0140840326643428e-06,0.9825426199407331,0.9887006624858709,Mirovanje
-0.9852403846153847,2.0479844667908864e-06,-0.989,-0.982,0.026576923076923085,1.532544378698205e-06,0.024,0.029,-0.02052884615384615,1.383783284023075e-06,-0.023,-0.018,0.9858140310377558,2.0423629367716245e-06,0.9825828209367391,0.9895913297922532,Mirovanje
-0.9849519230769231,2.795765532193073e-06,-0.99,-0.982,0.0268173076923077,2.726238905325089e-06,0.023,0.031,-0.020374999999999997,1.388221153845895e-06,-0.023,-0.017,0.9855296682548004,2.7826049678880693e-06,0.9825904538514507,0.9905235989112021,Mirovanje
-0.9855961538461538,2.048446745228638e-06,-0.988,-0.982,0.026480769230769235,2.1919378698222972e-06,0.024,0.03,-0.020538461538461537,1.671597633135652e-06,-0.023,-0.018,0.9861676863480999,2.0444028355770527e-06,0.9825217554843251,0.9886197448968942,Mirovanje
-0.9852500000000001,2.302884614446832e-06,-0.988,-0.981,0.026451923076923085,2.5746116863899953e-06,0.023,0.029,-0.020576923076923073,1.5710059171594108e-06,-0.024,-0.017,0.985821893350521,2.3195907946638172e-06,0.9815283999966583,0.988670319166101,Mirovanje
-0.9855096153846153,1.9999075440146896e-06,-0.988,-0.981,0.02670192307692308,2.209227071005857e-06,0.023,0.03,-0.020634615384615383,1.8472633136088976e-06,-0.023,-0.018,0.9860892494880826,2.0305055685732043e-06,0.9815961491367007,0.988670319166101,Mirovanje
-0.9854903846153846,1.999907543792645e-06,-0.989,-0.981,0.026461538461538467,1.6331360946745003e-06,0.024,0.029,-0.02058653846153846,1.6271264792892576e-06,-0.024,-0.017,0.9860621453992416,2.0223337215963255e-06,0.9815482667704121,0.9895645506989426,Mirovanje
-0.9853942307692307,2.8926590236455496e-06,-0.989,-0.981,0.026586538461538467,1.954049556212949e-06,0.022,0.031,-0.0210576923076923,1.05436390532526e-06,-0.024,-0.019,0.9859792456918111,2.888603468864659e-06,0.9815961491367007,0.989669641850249,Mirovanje
-0.9854903846153846,2.0768306205898313e-06,-0.988,-0.981,0.0263173076923077,2.5627773668638124e-06,0.023,0.03,-0.02054807692307692,1.651534763313521e-06,-0.024,-0.017,0.9860579729738835,2.087396174466072e-06,0.9814942689593251,0.988670319166101,Mirovanje
-0.9851346153846154,2.212647928323541e-06,-0.989,-0.982,0.026644230769230778,1.7484282544372133e-06,0.024,0.03,-0.020874999999999998,1.6286057692305048e-06,-0.024,-0.018,0.9857176378372816,2.2192257201902876e-06,0.9825090330373558,0.9895706139533449,Mirovanje
-0.9855288461538462,2.4607063604520363e-06,-0.99,-0.982,0.026355769230769235,2.5368897928992233e-06,0.023,0.03,-0.02056730769230769,1.8800850591714057e-06,-0.024,-0.016,0.9860979398016436,2.4781189542633086e-06,0.9825090330373558,0.9906401970443154,Mirovanje
-0.98525,1.7836538455107132e-06,-0.988,-0.981,0.026951923076923085,2.199611686390054e-06,0.023,0.03,-0.020990384615384612,1.0864460059167923e-06,-0.024,-0.019,0.9858437252173393,1.7840649836342592e-06,0.9815961491367007,0.9885990086986736,Mirovanje
-0.9854807692307693,1.6727070999422722e-06,-0.988,-0.982,0.02650961538461539,1.9614460059173963e-06,0.023,0.029,-0.02065384615384615,9.186390532541422e-07,-0.023,-0.018,0.986055042553732,1.693438972938388e-06,0.9825019083950931,0.9886485725473941,Mirovanje
-0.34090384615384617,0.23917356767751463,-0.989,0.033,0.019557692307692314,2.880436390532542e-05,0.013,0.029,-0.6516057692307692,0.2291312388128698,-1.017,-0.019,1.0046487716193493,0.0002024706837320256,0.9814973255185161,1.017629107288112,Mirovanje
0.029317307692307705,1.351238905324256e-06,0.026,0.032,0.01616346153846154,2.405972633136007e-06,0.012,0.02,-1.0144423076923077,1.7851331355345224e-06,-1.018,-1.011,1.014996406316229,1.795165140761057e-06,1.0115142114671447,1.018583820802196,Mirovanje
0.029336538461538473,1.8578957100582813e-06,0.027,0.032,0.015971153846153847,2.393398668639119e-06,0.013,0.02,-1.0142403846153845,1.624907544739429e-06,-1.017,-1.011,1.0147923472953366,1.6361015902077725e-06,1.0115586982474125,1.0175554038970065,Mirovanje
0.029692307692307702,1.90532544378614e-06,0.027,0.033,0.015798076923076925,1.757303994082745e-06,0.012,0.02,-1.0144807692307691,1.441937869772758e-06,-1.017,-1.011,1.0150399523755722,1.4431583186258479e-06,1.0115878607417153,1.0174959459378694,Mirovanje
0.029153846153846162,1.6686390532534828e-06,0.026,0.033,0.015951923076923082,1.872688609467338e-06,0.012,0.019,-1.0143173076923075,1.7166235206644842e-06,-1.017,-1.011,1.0148633172268473,1.7165780885619597e-06,1.0115423866551514,1.0175391884345288,Mirovanje
0.029307692307692316,2.4245562130166196e-06,0.025,0.032,0.015375000000000003,2.061298076922851e-06,0.012,0.019,-1.0139134615384615,1.6944341716396139e-06,-1.017,-1.011,1.0144556710817665,1.7106408123357397e-06,1.011487024138224,1.017629107288112,Mirovanje
0.029903846153846163,2.0099852070995777e-06,0.027,0.034,0.015730769230769236,1.7928994082838244e-06,0.013,0.019,-1.0139615384615384,1.5562130175617028e-06,-1.017,-1.011,1.0145262441387954,1.5576459371224871e-06,1.0115142114671447,1.0175681795339315,Mirovanje
0.02952884615384616,1.6722448224842056e-06,0.026,0.034,0.015778846153846157,1.97993713017743e-06,0.013,0.019,-1.014375,2.3305288456842987e-06,-1.017,-1.011,1.0149291696166571,2.328738165857658e-06,1.0115423866551514,1.017629107288112,Mirovanje
0.029365384615384627,2.289571005916098e-06,0.025,0.033,0.01616346153846154,3.1944341715976917e-06,0.012,0.021,-1.0146442307692307,2.2868897926464626e-06,-1.018,-1.011,1.015200461620575,2.2919561402101607e-06,1.0115562268109468,1.018583820802196,Mirovanje
0.029596153846153852,2.1446005917155056e-06,0.027,0.033,0.015817307692307696,2.3608542899407337e-06,0.012,0.019,-1.0142403846153845,1.5479844674981535e-06,-1.018,-1.01,1.014797608974581,1.5435887044112917e-06,1.01048503205144,1.0185676217119803,Mirovanje
0.029692307692307702,2.155325443786173e-06,0.026,0.034,0.015442307692307696,1.804363905325224e-06,0.012,0.019,-1.014326923076923,2.239275147752906e-06,-1.018,-1.011,1.014880846386537,2.271483899640714e-06,1.0114440172347652,1.0185524041501253,Mirovanje
0.029557692307692316,2.381286982247404e-06,0.026,0.033,0.015817307692307693,2.72623890532536e-06,0.012,0.019,-1.0143942307692306,1.4503513308117277e-06,-1.017,-1.012,1.0149505388322297,1.4614164740578417e-06,1.0124712341592723,1.017629107288112,Mirovanje
0.029355769230769237,1.8830436390523822e-06,0.026,0.033,0.015375000000000007,2.003605769230446e-06,0.013,0.019,-1.0144230769230769,1.4748520709151336e-06,-1.018,-1.012,1.014966122724857,1.4620285626598672e-06,1.0125556774814903,1.0184684580290153,Mirovanje
0.0293173076923077,2.1204696745559613e-06,0.026,0.033,0.015663461538461543,1.973280325443579e-06,0.011,0.019,-1.0145192307692308,1.5573224849685374e-06,-1.017,-1.011,1.0150656300766567,1.5358678493448963e-06,1.0116496429100343,1.0175003685503017,Mirovanje
0.029701923076923084,1.1613073224851257e-05,0.026,0.061,0.015451923076923082,2.459227071005673e-06,0.012,0.019,-1.0145192307692308,1.7880917164703192e-06,-1.018,-1.011,1.015078448823493,1.838887937699596e-06,1.0115715496196993,1.0186451786564348,Mirovanje
0.02929807692307693,1.6707655325435547e-06,0.025,0.032,0.01574038461538462,1.6729844674553984e-06,0.013,0.019,-1.014375,1.6382211540655334e-06,-1.017,-1.012,1.01492173734661,1.626676723986975e-06,1.012443578674881,1.0176015919798866,Mirovanje
0.029538461538461548,1.7292899408268914e-06,0.025,0.033,0.015788461538461543,1.7244822485206163e-06,0.013,0.019,-1.0146826923076924,1.4858542898288363e-06,-1.018,-1.011,1.0152370152856978,1.5047168648862908e-06,1.0115305235137495,1.0186132730334905,Mirovanje
0.02954807692307693,2.209227071004881e-06,0.026,0.032,0.015778846153846154,1.6145525147930203e-06,0.013,0.018,-1.0142596153846155,1.8845229288189103e-06,-1.019,-1.012,1.0148144935534937,1.880212227245437e-06,1.012470740317961,1.0195381307239075,Mirovanje
0.0293173076923077,2.2358542899400665e-06,0.026,0.033,0.015759615384615386,2.4902921597631366e-06,0.011,0.02,-1.0145961538461539,1.74075443837296e-06,-1.018,-1.012,1.0151443086193725,1.724985388307232e-06,1.012470740317961,1.0185548586109636,Mirovanje
0.02973076923076924,1.7736686390521644e-06,0.027,0.034,0.015394230769230773,2.1618897928991736e-06,0.013,0.019,-1.0146538461538461,1.6301775143112707e-06,-1.018,-1.011,1.015207992781818,1.6256226813560204e-06,1.0114845525266314,1.0185386590601262,Mirovanje
0.029798076923076934,2.2573039940823776e-06,0.026,0.033,0.01568269230769231,1.6781619822483812e-06,0.012,0.019,-1.0146153846153845,1.9866863909534516e-06,-1.018,-1.012,1.0151759368084754,1.9904019568084408e-06,1.0124983950604565,1.0185386590601262,Mirovanje
0.029846153846153856,2.6686390532528565e-06,0.025,0.034,0.01572115384615385,3.1241678994081007e-06,0.011,0.02,-1.0143749999999998,1.5805288460235545e-06,-1.017,-1.011,1.0149385964046378,1.607066645537003e-06,1.0115389265866144,1.0175996265722584,Mirovanje
0.029403846153846162,1.7215236686377424e-06,0.026,0.033,0.015692307692307696,1.7899408284021974e-06,0.012,0.019,-1.0146538461538461,1.3801775147204154e-06,-1.018,-1.012,1.0152028164350226,1.3953485518136688e-06,1.0124840739488201,1.0185548586109636,Mirovanje
0.029615384615384623,2.0443786982236953e-06,0.026,0.034,0.015490384615384621,1.6537536982245786e-06,0.013,0.019,-1.0143365384615384,1.8002034021247226e-06,-1.017,-1.011,1.0148888360615627,1.78505299119891e-06,1.0114712057196684,1.0175726018324196,Mirovanje
0.02946153846153847,1.7677514792886935e-06,0.027,0.033,0.01616346153846154,1.8482803254437795e-06,0.013,0.019,-1.0141346153846154,1.7895710060500392e-06,-1.017,-1.011,1.0146929795244441,1.820765344939801e-06,1.0114988877897988,1.0176197718204967,Mirovanje
0.029711538461538473,1.7821745562120184e-06,0.026,0.033,0.015567307692307696,2.5531619822483347e-06,0.011,0.019,-1.0145576923076922,1.4774408283457774e-06,-1.017,-1.012,1.0151141607433851,1.4810428685674282e-06,1.0124569126634477,1.017629107288112,Mirovanje
0.02971153846153847,1.839866863905101e-06,0.027,0.033,0.015788461538461543,1.820636094674471e-06,0.013,0.02,-1.0147980769230769,1.5457655322403951e-06,-1.017,-1.012,1.0153574923663025,1.55692638337257e-06,1.0125137036109684,1.0176453213177956,Mirovanje
0.029365384615384627,1.6934171597621228e-06,0.026,0.033,0.015509615384615389,1.999907544378602e-06,0.013,0.019,-1.0146442307692307,1.3253513311273224e-06,-1.017,-1.012,1.0151893913553378,1.3073718867495643e-06,1.0125137036109684,1.0175529470253624,Mirovanje
0.029538461538461548,2.806213017751062e-06,0.026,0.033,0.01579807692307693,2.4303809171595113e-06,0.012,0.021,-1.0145480769230768,1.6707655330350235e-06,-1.017,-1.012,1.015103515642932,1.6602216674765913e-06,1.0124712341592723,1.0176453213177956,Mirovanje
0.02973076923076924,2.0428994082830445e-06,0.025,0.033,0.015875000000000004,2.0132211538460864e-06,0.013,0.019,-1.0147211538461538,2.0472448227781825e-06,-1.018,-1.011,1.0152827090823313,2.078330750387991e-06,1.011666447007115,1.0186284896860092,Mirovanje
0.02973076923076924,2.4852071005905703e-06,0.026,0.034,0.015701923076923082,2.1323039940826863e-06,0.012,0.02,-1.0148846153846152,1.3905325444429906e-06,-1.018,-1.013,1.0154436706188297,1.4114155424405084e-06,1.0134979033032085,1.0185524041501253,Mirovanje
0.02950961538461539,2.307599852070146e-06,0.025,0.033,0.01593269230769231,2.5243158284023355e-06,0.012,0.019,-1.014605769230769,1.8157359467085854e-06,-1.018,-1.011,1.0151622309362598,1.8275728232985955e-06,1.011487024138224,1.0185720396712252,Mirovanje
0.02962500000000001,1.7920673076915646e-06,0.027,0.034,0.016086538461538465,1.7136649408281226e-06,0.013,0.02,-1.0149615384615385,1.4985207101858578e-06,-1.018,-1.011,1.015522945189545,1.4939473991226748e-06,1.0115586982474125,1.018583820802196,Mirovanje
0.02947115384615386,2.403014053252916e-06,0.026,0.034,0.015538461538461544,2.210059171597439e-06,0.012,0.018,-1.0149038461538462,1.4715236689166744e-06,-1.017,-1.012,1.0154528206191524,1.4633273768271948e-06,1.0125709851659783,1.0176060141331713,Mirovanje
0.029355769230769237,1.9791974852061828e-06,0.025,0.033,0.015798076923076925,2.4496116863904666e-06,0.012,0.021,-1.0146442307692307,1.1907359467322465e-06,-1.017,-1.012,1.0151939094547007,1.2012060808253011e-06,1.0125413571800412,1.0175843945344287,Mirovanje
0.03012500000000001,1.7055288461523743e-06,0.027,0.033,0.01579807692307693,1.7765347633134834e-06,0.012,0.019,-1.01475,1.8798076923953744e-06,-1.018,-1.012,1.0153216967016438,1.8714376648354403e-06,1.0125122221484537,1.0186309439635142,Mirovanje
0.029423076923076934,2.263313609466265e-06,0.025,0.033,0.015509615384615389,2.403753698224651e-06,0.012,0.021,-1.0144326923076923,1.6685465975552205e-06,-1.018,-1.012,1.0149801088772517,1.6670450604383547e-06,1.0124712341592723,1.0185386590601262,Mirovanje
0.029673076923076934,1.7392751479277215e-06,0.025,0.033,0.016153846153846154,2.7071005917159597e-06,0.012,0.02,-1.0146346153846153,2.0780325447056214e-06,-1.017,-1.011,1.0151991445073685,2.0623761223248493e-06,1.0115305235137495,1.0176315639758822,Mirovanje
0.029307692307692316,1.8668639053247716e-06,0.026,0.033,0.01530769230769231,2.38609467455601e-06,0.012,0.019,-1.0147596153846155,2.163369082763822e-06,-1.019,-1.01,1.0153002572160985,2.1473123090753887e-06,1.010471672042319,1.0194954634523883,Mirovanje
0.029634615384615395,2.2511094674547297e-06,0.026,0.034,0.015480769230769235,1.4611686390530174e-06,0.011,0.018,-1.0144230769230769,1.3210059173207611e-06,-1.017,-1.012,1.0149757411924287,1.3217139567256453e-06,1.0124840739488201,1.0175681795339315,Mirovanje
0.02922115384615385,2.1530140532540756e-06,0.025,0.033,0.015576923076923082,1.8210059171596066e-06,0.012,0.019,-1.0144423076923075,1.6505177520276249e-06,-1.018,-1.012,1.0149845762006733,1.6466132009007595e-06,1.0125265428619636,1.0185676217119803,Mirovanje
0.029750000000000013,1.1682692307683892e-06,0.028,0.032,0.015625000000000003,1.7343749999998372e-06,0.013,0.019,-1.0147307692307692,1.1390532541621923e-06,-1.017,-1.012,1.0152884465815375,1.1490842022343628e-06,1.0124840739488201,1.0176315639758822,Mirovanje
0.02946153846153847,1.3254437869818182e-06,0.026,0.032,0.01582692307692308,2.1238905325443873e-06,0.012,0.02,-1.0147980769230769,9.688424555953645e-07,-1.017,-1.012,1.0153507027617272,9.792474207070967e-07,1.0124840739488201,1.0175681795339315,Mirovanje
0.029451923076923084,2.5938424556206253e-06,0.025,0.033,0.01574038461538462,1.8652921597631079e-06,0.013,0.02,-1.0149230769230768,1.224852071546323e-06,-1.017,-1.012,1.0154745180998126,1.2146284149583408e-06,1.0125265428619636,1.017638934003608,Mirovanje
0.02962500000000001,1.7536057692298709e-06,0.026,0.033,0.015442307692307696,1.9966715976330962e-06,0.012,0.018,-1.014730769230769,2.3698224853596628e-06,-1.019,-1.011,1.0152824130126736,2.381442546939283e-06,1.0114717000489928,1.019551862339528,Mirovanje
0.029115384615384623,1.8713017751470495e-06,0.026,0.032,0.01580769230769231,2.116863905325347e-06,0.013,0.019,-1.0142115384615384,1.4360207101216105e-06,-1.017,-1.011,1.0147544539914655,1.4557967906725366e-06,1.0115562268109468,1.0175829204541513,Mirovanje
0.02951923076923078,1.7303994082834909e-06,0.027,0.033,0.01590384615384616,1.3561390532540376e-06,0.012,0.019,-1.0146923076923076,1.3860946752597414e-06,-1.018,-1.012,1.0152476973349465,1.3822868578650116e-06,1.0125413571800412,1.0184954589982225,Mirovanje
0.029721153846153855,2.104937130176796e-06,0.026,0.034,0.015586538461538464,2.4732803254436727e-06,0.012,0.019,-1.0148461538461537,1.0147928999337807e-06,-1.017,-1.012,1.0154031631432376,1.0124325535709744e-06,1.012528024303525,1.0175686709013794,Mirovanje
0.029913461538461545,1.9252034023660826e-06,0.027,0.033,0.015557692307692312,1.91974852070998e-06,0.012,0.019,-1.0148653846153843,1.7703402370727872e-06,-1.018,-1.012,1.0154272256625931,1.7705370154441624e-06,1.0125556774814903,1.0186010013739433,Mirovanje
0.029798076923076934,2.1803809171589902e-06,0.025,0.033,0.01557692307692308,2.686390532544191e-06,0.012,0.019,-1.0146730769230767,1.7777366865256994e-06,-1.018,-1.012,1.0152324321299964,1.772212951056673e-06,1.0124865431204506,1.0184836768451422,Mirovanje
0.029548076923076934,2.4976886094659574e-06,0.027,0.033,0.01574038461538462,2.0191383136092863e-06,0.013,0.02,-1.0146538461538461,1.2263313602378645e-06,-1.018,-1.012,1.0152082564346598,1.2152976671675475e-06,1.0125265428619636,1.0185268774067773,Mirovanje
0.5191442307692308,0.2394337772744083,0.027,1.012,0.012442307692307695,1.0573594674556013e-05,0.007,0.018,-0.5047596153846154,0.2604053556767755,-1.017,0.008,1.0120686755212693,1.4515259392666735e-05,1.004067726799343,1.017629107288112,Mirovanje
1.0088461538461537,2.3609467452168076e-06,1.006,1.013,0.010288461538461536,2.2629437869822e-06,0.006,0.014,0.006750000000000002,1.0528846153845346e-06,0.004,0.009,1.0089228405904689,2.3555810124697985e-06,1.0060581494128458,1.0130809444461977,Mirovanje
1.0084807692307691,2.326553254050623e-06,1.005,1.012,0.010259615384615383,1.7114460059171056e-06,0.007,0.014,0.006798076923076924,2.2573039940828045e-06,0.004,0.01,1.0085578376878976,2.3188075426450183e-06,1.0050681568928546,1.012091399034692,Mirovanje
1.0087307692307692,1.2928994079786094e-06,1.006,1.012,0.010211538461538463,2.1475591715974985e-06,0.005,0.014,0.006759615384615386,1.9325998520709227e-06,0.003,0.01,1.0088071281868372,1.2838886565003094e-06,1.0060993986679447,1.0120578046732311,Mirovanje
1.0084807692307691,1.9611686385978544e-06,1.004,1.012,0.00983653846153846,2.1367418639052353e-06,0.006,0.013,0.006528846153846155,1.3068602071005482e-06,0.004,0.01,1.0085515800490796,1.96038050415126e-06,1.0040423297849548,1.0120721318167,Mirovanje
1.0085673076923076,2.880085058665216e-06,1.005,1.014,0.009721153846153845,1.7780140532543782e-06,0.007,0.013,0.006432692307692309,1.5916235207099838e-06,0.004,0.01,1.0086363371184046,2.8836751366778657e-06,1.0050676594140315,1.0140912187766937,Mirovanje
1.0086923076923076,2.6937869814780413e-06,1.004,1.012,0.009634615384615384,2.212647928994039e-06,0.005,0.013,0.006605769230769233,1.3349667159762897e-06,0.003,0.009,1.0087617041815033,2.699176828935279e-06,1.0040781842067878,1.012088928899037,Mirovanje
1.0083846153846152,2.9866863899830065e-06,1.004,1.012,0.009653846153846152,2.187869822485155e-06,0.005,0.013,0.006615384615384617,1.0636094674556156e-06,0.004,0.009,1.0084541405172698,2.9772428049579247e-06,1.0040846577853881,1.0120494059086245,Mirovanje
1.0083846153846152,3.3905325440564127e-06,1.005,1.015,0.010086538461538461,2.6559726331359587e-06,0.006,0.014,0.006509615384615386,1.634522928994057e-06,0.004,0.01,1.0084582039737575,3.3777610999319307e-06,1.0050646745359224,1.0150438414176994,Mirovanje
1.0081538461538462,3.2071005908740347e-06,1.003,1.013,0.009615384615384614,1.9097633136094344e-06,0.006,0.012,0.0065192307692307685,1.8457840236686194e-06,0.003,0.01,1.0082226422442606,3.1998198473104367e-06,1.0030398795661117,1.0130483700199115,Mirovanje
1.0086249999999999,2.215144230710564e-06,1.005,1.013,0.00979807692307692,1.6419193786981924e-06,0.007,0.013,0.006394230769230769,1.5657359467455642e-06,0.004,0.009,1.008694446780685,2.214956884794006e-06,1.005052734934839,1.0130774896324564,Mirovanje
1.008403846153846,2.3946005913710877e-06,1.005,1.013,0.00983653846153846,1.6559726331360429e-06,0.007,0.013,0.006519230769230771,1.961168639053192e-06,0.003,0.01,1.008474688420703,2.3893532274943396e-06,1.0050621871307266,1.0130641638119473,Mirovanje
1.0085192307692308,2.15347633059082e-06,1.005,1.012,0.009884615384615382,1.2366863905325054e-06,0.007,0.013,0.006586538461538463,1.742511094674481e-06,0.003,0.01,1.00859065331683,2.153657313819224e-06,1.0050646745359224,1.012091399034692,Mirovanje
1.0085,1.9038461531728501e-06,1.006,1.012,0.009980769230769229,1.9034763313609092e-06,0.007,0.013,0.006884615384615386,2.0636094674555925e-06,0.004,0.01,1.0085748492783169,1.9080186046682712e-06,1.0060442336199735,1.012083988609641,Mirovanje
1.0083653846153846,2.020340235775464e-06,1.005,1.012,0.010134615384615383,1.5203402366862766e-06,0.008,0.013,0.006740384615384616,1.7883690828402084e-06,0.004,0.011,1.0084404809240652,2.0175874853034514e-06,1.0050721367145743,1.0120617570089288,Mirovanje
1.0085576923076922,2.1505177512093354e-06,1.005,1.011,0.009865384615384613,2.0011094674555774e-06,0.007,0.013,0.006750000000000002,1.6874999999999462e-06,0.003,0.009,1.0086303607007052,2.141626610940861e-06,1.005049750012406,1.0110840716775238,Mirovanje
1.008201923076923,2.1996116859046566e-06,1.005,1.011,0.010009615384615384,1.8749075443786397e-06,0.007,0.013,0.006519230769230771,1.7688609467455505e-06,0.003,0.01,1.0082744908840666,2.2048786298967116e-06,1.0050442776315875,1.011102863214223,Mirovanje
1.008778846153846,1.8645525143856645e-06,1.006,1.011,0.010249999999999999,2.475961538461543e-06,0.006,0.014,0.006586538461538463,1.4348187869821783e-06,0.004,0.009,1.008854356350555,1.8684417375514073e-06,1.0060482095804355,1.0111152258768532,Mirovanje
1.0088942307692308,1.5368897925416292e-06,1.006,1.012,0.009798076923076925,2.5265347633135016e-06,0.006,0.014,0.006682692307692308,1.2166235207100356e-06,0.004,0.009,1.008965792695631,1.5387854606085938e-06,1.0060844894938,1.012091399034692,Mirovanje
1.0083653846153846,2.1549556203925846e-06,1.004,1.013,0.009615384615384614,3.1020710059171953e-06,0.005,0.015,0.006682692307692308,1.1012389053254154e-06,0.004,0.01,1.00843545161858,2.1610726763654498e-06,1.0040961109375934,1.0130641638119473,Mirovanje
1.0085865384615382,2.2425110948187665e-06,1.005,1.012,0.009673076923076923,2.1431213017750986e-06,0.006,0.014,0.006355769230769231,1.421505177514755e-06,0.004,0.009,1.0086547113194937,2.2502560657056137e-06,1.005048257547865,1.012083494579375,Mirovanje
1.0085865384615385,2.530972632142081e-06,1.005,1.013,0.01025,2.206730769230717e-06,0.005,0.014,0.006461538461538463,2.402366863905257e-06,0.002,0.01,1.0086616031284863,2.5299896562192004e-06,1.0050676594140315,1.0130952571204743,Mirovanje
1.0083942307692306,2.2388128693151543e-06,1.004,1.012,0.009634615384615382,2.1549556213017694e-06,0.007,0.013,0.006692307692307694,1.6745562130176923e-06,0.003,0.009,1.0084643610533475,2.2382544941912386e-06,1.004092127247296,1.012073613923414,Mirovanje
1.0086634615384615,2.39635724796905e-06,1.005,1.013,0.009874999999999998,2.3593749999999472e-06,0.007,0.013,0.006528846153846155,1.960706360946678e-06,0.002,0.01,1.0087350631685241,2.4088728549642724e-06,1.0050621871307266,1.0130839057057415,Mirovanje
1.008403846153846,2.1061390527155055e-06,1.005,1.013,0.010153846153846152,2.2647928994082035e-06,0.006,0.014,0.006423076923076924,1.340236686390509e-06,0.003,0.009,1.0084772105775965,2.10036101444544e-06,1.0050815887279996,1.0130572540582294,Mirovanje
1.0082980769230767,1.8053809167639656e-06,1.005,1.011,0.010009615384615384,2.5864460059170456e-06,0.006,0.015,0.0068269230769230785,1.7392751479289209e-06,0.003,0.01,1.0083730137197073,1.8075095267189312e-06,1.0050815887279996,1.0110914894310998,Mirovanje
1.0085480769230768,1.7284578395226902e-06,1.005,1.012,0.009663461538461537,2.6655880177514093e-06,0.006,0.014,0.006875000000000001,1.6862980769230386e-06,0.005,0.011,1.0086199591401874,1.7299471228859886e-06,1.0050676594140315,1.0120494059086245,Mirovanje
1.0085288461538462,2.268398667792937e-06,1.005,1.012,0.009913461538461536,1.7905880177514287e-06,0.006,0.013,0.0065000000000000014,1.6153846153845686e-06,0.004,0.009,1.0086001962543654,2.2787310400840255e-06,1.0050621871307266,1.012077566197374,Mirovanje
1.0086057692307693,1.8734282536403413e-06,1.006,1.012,0.009548076923076921,2.863073224852088e-06,0.005,0.014,0.00653846153846154,1.8446745562129686e-06,0.004,0.01,1.008674491225465,1.8669048948982692e-06,1.0060576524235576,1.0120953512392001,Mirovanje
1.008826923076923,2.623890532404971e-06,1.005,1.013,0.009644230769230768,1.5176590236686097e-06,0.005,0.012,0.0069615384615384635,1.190828402366805e-06,0.004,0.01,1.008898380133818,2.625871049710682e-06,1.0050960153139596,1.0130735412594685,Mirovanje
1.008153846153846,1.784023668571777e-06,1.005,1.011,0.009528846153846153,1.8645525147928366e-06,0.006,0.014,0.006634615384615386,2.097263313609439e-06,0.003,0.011,1.008222672330511,1.7833833383384956e-06,1.0050577097858608,1.0110840716775238,Mirovanje
1.008096153846154,2.6061390523413053e-06,1.004,1.012,0.009798076923076922,2.622688609467424e-06,0.005,0.014,0.006740384615384617,1.8652921597632502e-06,0.003,0.01,1.0081685248937913,2.610028861260716e-06,1.0040443217308685,1.012091399034692,Mirovanje
1.0082403846153847,1.874907543886195e-06,1.004,1.012,0.00973076923076923,1.8698224852070356e-06,0.007,0.013,0.006125000000000001,1.6478365384614872e-06,0.003,0.009,1.0083076844868128,1.8826356109613585e-06,1.0040816699850665,1.0120810244244283,Mirovanje
1.00825,2.3990384607763815e-06,1.003,1.012,0.00985576923076923,1.8734282544377855e-06,0.007,0.013,0.006375000000000001,1.54206730769227e-06,0.003,0.01,1.0083200142007696,2.4028083134286504e-06,1.0030578248535822,1.0120494059086245,Mirovanje
1.0082884615384615,2.339866863598772e-06,1.005,1.013,0.009615384615384612,2.2559171597632275e-06,0.006,0.013,0.006326923076923078,1.5277366863904865e-06,0.003,0.009,1.0083560346870368,2.3380794655913917e-06,1.005039800206937,1.0130478764599429,Mirovanje
1.0080192307692306,2.4419378696904914e-06,1.004,1.012,0.009971153846153845,1.4318602071005038e-06,0.006,0.013,0.006682692307692308,1.582008136094662e-06,0.004,0.01,1.0080921901167332,2.4439179553414903e-06,1.004092127247296,1.012077566197374,Mirovanje
1.008375,1.9651442300094857e-06,1.004,1.011,0.009307692307692307,1.943786982248525e-06,0.006,0.012,0.006432692307692308,1.2454696745561704e-06,0.004,0.009,1.0084400562945617,1.960552928226278e-06,1.0040527874569145,1.011102863214223,Mirovanje
1.008153846153846,2.187869822201094e-06,1.005,1.012,0.010057692307692306,2.99667159763308e-06,0.005,0.013,0.006855769230769233,1.5465051775147173e-06,0.002,0.01,1.0082295709150841,2.199640077193976e-06,1.005049750012406,1.012088928899037,Mirovanje
1.008375,2.0997596144045616e-06,1.006,1.012,0.009923076923076923,2.5325443786981616e-06,0.005,0.014,0.006278846153846154,1.374167899408275e-06,0.004,0.01,1.0084453003755511,2.114612002612759e-06,1.0060581494128458,1.012091399034692,Mirovanje
1.0083365384615384,1.8194341713240192e-06,1.005,1.013,0.009644230769230768,1.9984282544378292e-06,0.006,0.013,0.006615384615384616,1.8136094674556e-06,0.004,0.01,1.0084062474188007,1.8209359631260469e-06,1.0050358202571685,1.0130631767071587,Mirovanje
1.0082692307692307,2.773668638766935e-06,1.005,1.012,0.009942307692307691,1.6697485207099603e-06,0.007,0.013,0.0063750000000000005,1.4266826923076836e-06,0.004,0.009,1.0083399365126349,2.774356772317077e-06,1.0050721367145743,1.0120716377806465,Mirovanje
1.0083846153846152,1.8328402364709007e-06,1.005,1.013,0.010076923076923075,2.013313609467384e-06,0.005,0.012,0.006625000000000001,1.657451923076897e-06,0.003,0.009,1.0084585426485093,1.838913090246308e-06,1.0050895482493087,1.013099698943791,Mirovanje
1.0081923076923076,2.80917159711791e-06,1.004,1.012,0.009817307692307691,2.57239275147929e-06,0.006,0.014,0.006644230769230771,1.4984282544377967e-06,0.004,0.01,1.0082640154781792,2.8097072020116798e-06,1.0040423297849548,1.0120642272109017,Mirovanje
1.0084519230769229,2.555380916868799e-06,1.005,1.012,0.010048076923076922,2.007303994082751e-06,0.007,0.013,0.006548076923076924,1.3246116863905002e-06,0.004,0.01,1.0085248944162926,2.5469579900683215e-06,1.0050920355867914,1.012067191445311,Mirovanje
1.0086634615384615,1.9540495554970505e-06,1.005,1.012,0.009701923076923077,1.651534763313521e-06,0.007,0.013,0.006240384615384616,1.5672152366863506e-06,0.003,0.009,1.0087310175264272,1.9554339443228486e-06,1.0050781064176055,1.012067191445311,Mirovanje
1.0082115384615382,1.8014053251302897e-06,1.004,1.011,0.009894230769230768,1.3445821005916793e-06,0.007,0.012,0.006548076923076924,1.093842455621307e-06,0.004,0.009,1.0082825572946983,1.8038860321034633e-06,1.004072706530757,1.0110811045608556,Mirovanje
1.0085384615384614,2.5562130172573916e-06,1.006,1.012,0.009826923076923075,2.296967455621304e-06,0.007,0.014,0.006548076923076924,1.6899963017751062e-06,0.004,0.01,1.008609573095183,2.546368444544811e-06,1.0060442336199735,1.0120810244244283,Mirovanje
1.0085288461538462,2.3645525140114643e-06,1.004,1.012,0.009923076923076922,2.0133136094674245e-06,0.006,0.013,0.006423076923076925,1.4940828402366265e-06,0.003,0.009,1.0085998514377716,2.3685258583316937e-06,1.0040742004453656,1.0120523701864443,Mirovanje
1.0081730769230768,2.508505916987147e-06,1.003,1.011,0.009692307692307693,2.1745562130177248e-06,0.007,0.013,0.006307692307692309,1.2899408284023275e-06,0.004,0.01,1.0082411129023225,2.5120996394178974e-06,1.0030623111252859,1.011089016852621,Mirovanje
1.0081730769230768,1.912352070476686e-06,1.005,1.012,0.009538461538461536,2.1908284023668497e-06,0.006,0.014,0.006153846153846155,1.4571005917159429e-06,0.004,0.009,1.0082387872521,1.9132650297404297e-06,1.005039800206937,1.0120578046732311,Mirovanje
1.0084615384615385,2.2869822480231505e-06,1.005,1.012,0.009942307692307693,2.150517751479261e-06,0.006,0.013,0.006403846153846155,1.6061390532543893e-06,0.003,0.009,1.0085327414090641,2.2864289941360028e-06,1.0050721367145743,1.012077566197374,Mirovanje
1.0085673076923076,2.880085058665216e-06,1.005,1.012,0.009817307692307691,2.3800850591715805e-06,0.007,0.014,0.00666346153846154,1.5694341715975776e-06,0.004,0.01,1.0086390587903957,2.8740824240536256e-06,1.0050582072696086,1.0120558284995942,Mirovanje
0.1218557692307692,0.10246462342825462,0.004,1.011,0.8847596153846153,0.09992564413831373,0.007,1.004,-0.013557692307692309,5.553513313609457e-05,-0.019,0.009,1.0001334956776249,1.1010054423277182e-05,0.9961229843749214,1.0110722031586072,Mirovanje
0.006615384615384616,2.5059171597632945e-06,0.002,0.01,0.9988557692307692,2.1618897929620573e-06,0.995,1.002,-0.01559615384615385,1.452292899408055e-06,-0.019,-0.012,0.9990014014927033,2.1709694603133656e-06,0.9951256202108355,1.0021935940725224,Mirovanje
0.006346153846153848,2.7455621301774365e-06,0.003,0.011,0.9992980769230768,2.5169193786922506e-06,0.995,1.003,-0.015432692307692312,1.7454696745558844e-06,-0.019,-0.012,0.9994396322539529,2.5176339292221073e-06,0.9951738541581567,1.0031400699802593,Mirovanje
0.0063653846153846165,1.7318786982248194e-06,0.003,0.009,0.9989326923076924,2.38970044341702e-06,0.995,1.003,-0.015230769230769235,1.465976331360702e-06,-0.018,-0.013,0.9990706821804275,2.3777767655941418e-06,0.9951311471358939,1.0031565181964377,Mirovanje
0.0064423076923076925,2.16974852071002e-06,0.003,0.01,0.9989807692307693,2.057322485593538e-06,0.996,1.002,-0.015269230769230775,1.427514792899198e-06,-0.018,-0.013,0.9991200310465229,2.048176979352334e-06,0.9961375407040938,1.0021566743778139,Mirovanje
0.006759615384615386,2.9133690828401883e-06,0.003,0.011,0.9992596153846154,1.8845229284858434e-06,0.996,1.004,-0.015067307692307696,1.7550850591713891e-06,-0.019,-0.012,0.9993984021625729,1.8818318192614925e-06,0.9961531006828217,1.0041593499041874,Mirovanje
0.006673076923076925,1.98927514792892e-06,0.004,0.011,0.9990096153846153,2.6249075444351178e-06,0.994,1.003,-0.014942307692307697,1.3428254437867159e-06,-0.017,-0.012,0.9991453055895713,2.629472168447222e-06,0.9941312790572481,1.0031301012331348,Mirovanje
0.006336538461538463,2.1271264792899135e-06,0.003,0.009,0.9986153846153846,3.2366863912391963e-06,0.994,1.003,-0.014942307692307697,1.6312869822482801e-06,-0.018,-0.011,0.9987491524864415,3.236176845389238e-06,0.9941378174076269,1.0031455527489517,Mirovanje
0.006375000000000001,2.176682692307641e-06,0.002,0.01,0.9987692307692306,2.042899408860599e-06,0.995,1.002,-0.01479807692307693,2.0842270710056776e-06,-0.018,-0.011,0.9989013306994011,2.0353731197131353e-06,0.9950854234687593,1.0021521840519032,Mirovanje
0.006615384615384616,1.717455621301752e-06,0.004,0.01,0.9992211538461537,1.8260909763201383e-06,0.996,1.002,-0.015221153846153853,1.4222448224849042e-06,-0.019,-0.012,0.9993605439650669,1.8300889221833927e-06,0.9961209765886873,1.0021456979900676,Mirovanje
0.006663461538461539,2.0117418639052797e-06,0.003,0.011,0.9984615384615385,2.8254437871577665e-06,0.995,1.003,-0.015288461538461544,1.243713017751207e-06,-0.019,-0.012,0.9986024391865763,2.8319121583297857e-06,0.9951256202108355,1.003144057451371,Mirovanje
0.006740384615384616,2.172984467455573e-06,0.003,0.01,0.9985961538461539,1.9330621302549034e-06,0.995,1.002,-0.015375000000000007,1.1189903846150421e-06,-0.018,-0.013,0.9987389037905463,1.9289783347309353e-06,0.9951376789168421,1.00213023105782,Mirovanje
0.006490384615384617,1.7691383136093886e-06,0.003,0.01,0.9989423076923075,2.4966715982399634e-06,0.995,1.003,-0.015201923076923082,1.2188424556211204e-06,-0.018,-0.013,0.9990805418950008,2.5131144827383878e-06,0.9951110490794483,1.0031684803660847,Mirovanje
0.006634615384615386,2.404955621301694e-06,0.003,0.01,0.9987980769230769,2.0073039943557802e-06,0.996,1.002,-0.01522115384615385,1.403014053254247e-06,-0.018,-0.011,0.998937992572,2.0023808375846386e-06,0.9961229843749214,1.0021167596642617,Mirovanje
0.0068365384615384625,3.0405880177514184e-06,0.003,0.011,0.9991730769230769,2.4892751477878505e-06,0.994,1.003,-0.015269230769230775,1.1198224852068954e-06,-0.017,-0.013,0.9993152074173296,2.491224459277852e-06,0.9941378174076269,1.0031246183799896,Mirovanje
0.006653846153846155,1.860946745562107e-06,0.004,0.01,0.9986442307692306,2.0945821012086085e-06,0.996,1.001,-0.015105769230769237,1.5753513313608114e-06,-0.018,-0.012,0.9987823526787568,2.1004390261536443e-06,0.9960968828382106,1.0011688169334878,Mirovanje
0.006663461538461539,1.8963572485206865e-06,0.004,0.011,0.9987499999999999,2.5528846155919993e-06,0.995,1.003,-0.01568269230769231,1.4089312130176096e-06,-0.019,-0.013,0.9988969934938015,2.5656198135992625e-06,0.9951311471358939,1.0031684803660847,Mirovanje
0.006615384615384617,1.7751479289940554e-06,0.003,0.01,0.9987884615384615,2.5514053253461455e-06,0.995,1.002,-0.01529807692307693,1.651534763313277e-06,-0.018,-0.012,0.9989292364577682,2.5440114385100188e-06,0.9951311471358939,1.0021402097511105,Mirovanje
0.006548076923076924,2.6899963017751305e-06,0.002,0.01,0.9992115384615384,2.993713017152011e-06,0.995,1.004,-0.015134615384615387,1.3280325443786078e-06,-0.019,-0.013,0.9993496177571333,2.98571944079562e-06,0.995123107962025,1.004105572138707,Mirovanje
0.006480769230769233,2.4611686390531976e-06,0.003,0.011,0.9991442307692308,2.4695821009279584e-06,0.996,1.003,-0.015038461538461544,1.3446745562127192e-06,-0.018,-0.012,0.9992803148408718,2.4773715278092467e-06,0.9961310154793896,1.0031301012331348,Mirovanje
0.006471153846153848,2.133783284023581e-06,0.003,0.01,0.998951923076923,2.4880732251153503e-06,0.994,1.002,-0.015355769230769235,1.2099667159761308e-06,-0.018,-0.013,0.9990925687392884,2.4910130067556935e-06,0.9941488822103055,1.0021681495637347,Mirovanje
0.006576923076923078,1.91715976331359e-06,0.003,0.011,0.9994134615384614,2.5309726329192372e-06,0.996,1.003,-0.014961538461538467,1.4023668639051785e-06,-0.017,-0.012,0.9995487425883347,2.5323439249991253e-06,0.9961254941020233,1.0031620008752322,Mirovanje
0.00680769230769231,2.2514792899408005e-06,0.003,0.011,0.9988557692307692,2.181120562272376e-06,0.995,1.003,-0.015326923076923082,1.123890532544092e-06,-0.019,-0.012,0.9989982397240087,2.1804898703292608e-06,0.9951376789168421,1.0031246183799896,Mirovanje
0.006990384615384616,1.6825998520710047e-06,0.003,0.01,0.9988942307692307,2.652274408432298e-06,0.994,1.003,-0.014548076923076926,1.5746116863904589e-06,-0.018,-0.012,0.9990262539694902,2.6496489188287953e-06,0.9941609527636861,1.003116144820728,Mirovanje
0.006413461538461539,2.242511094674554e-06,0.002,0.012,0.9990865384615385,1.9828957101841738e-06,0.996,1.003,-0.015048076923076926,1.1034578402366357e-06,-0.018,-0.013,0.9992221107574027,1.9906812125380924e-06,0.9961531006828217,1.0031595087522223,Mirovanje
0.007009615384615386,3.144138313609449e-06,0.001,0.012,0.9988365384615384,1.4444341720487586e-06,0.995,1.002,-0.015019230769230774,1.153476331360796e-06,-0.018,-0.011,0.9989761917979068,1.4528363362353858e-06,0.9951311471358939,1.0021476937058729,Mirovanje
0.006721153846153848,1.931860207100516e-06,0.004,0.01,0.9986057692307692,2.4695821009279584e-06,0.995,1.002,-0.01497115384615385,1.5664755917157676e-06,-0.018,-0.012,0.9987423503258768,2.4772809279483e-06,0.995104517123704,1.0021621625266042,Mirovanje
0.006701923076923078,1.805380917159713e-06,0.004,0.01,0.998951923076923,1.8919193790489786e-06,0.996,1.002,-0.015384615384615389,1.5059171597629924e-06,-0.019,-0.012,0.999094519479915,1.8911451977743354e-06,0.9961254941020233,1.0021761322242713,Mirovanje
0.006778846153846154,2.0376294378698077e-06,0.003,0.01,0.9989038461538461,2.567677515052935e-06,0.994,1.004,-0.015019230769230774,1.1534763313607148e-06,-0.018,-0.012,0.9990413453434506,2.5729866557355763e-06,0.9941609527636861,1.0041593499041874,Mirovanje
0.006673076923076925,1.623890532544348e-06,0.004,0.01,0.9987884615384615,9.686020709720466e-06,0.971,1.002,-0.015163461538461542,1.7521264792898434e-06,-0.018,-0.012,0.998927536820805,9.689642657795261e-06,0.9711261504047761,1.0021861104605272,Mirovanje
0.006750000000000002,1.7644230769230286e-06,0.004,0.01,0.9987019230769232,1.9976886095340873e-06,0.995,1.003,-0.015163461538461542,1.5982803254436107e-06,-0.018,-0.012,0.9988415272476641,1.9880609384292924e-06,0.9951607910282639,1.0031246183799896,Mirovanje
0.006461538461538463,2.267751479289871e-06,0.003,0.009,0.9993173076923078,2.2358542899336697e-06,0.996,1.004,-0.014980769230769235,1.2111686390529842e-06,-0.017,-0.012,0.9994522171571568,2.2367734888728563e-06,0.9961390465191092,1.0041842460425279,Mirovanje
0.006240384615384616,2.336446005917121e-06,0.003,0.01,0.9986730769230768,2.6046597639828306e-06,0.995,1.003,-0.015317307692307696,1.332008136094439e-06,-0.018,-0.012,0.998811861558617,2.615209809819774e-06,0.9951065269608074,1.0031400699802593,Mirovanje
0.006750000000000002,1.6490384615384219e-06,0.003,0.01,0.9990384615384615,1.9985207102557467e-06,0.994,1.002,-0.01529807692307693,1.9207655325440215e-06,-0.019,-0.011,0.9991801705272069,1.996440606277794e-06,0.9941876080499092,1.0021596679172435,Mirovanje
0.006403846153846155,2.1253698224851873e-06,0.003,0.011,0.9990192307692307,2.2880917158740743e-06,0.994,1.002,-0.015355769230769235,1.5176590236684064e-06,-0.019,-0.011,0.9991595826982161,2.2917638653474626e-06,0.9941166933514395,1.0021596679172435,Mirovanje
0.006596153846153848,2.029215976331285e-06,0.002,0.01,0.9989423076923077,2.227440828450611e-06,0.996,1.002,-0.015384615384615389,1.525147928993758e-06,-0.018,-0.012,0.9990843248510666,2.223375349386103e-06,0.9961450697564085,1.0021681495637347,Mirovanje
0.0065000000000000014,1.5961538461538099e-06,0.004,0.01,0.9988269230769229,2.4508136097223243e-06,0.994,1.002,-0.01524038461538462,1.58644600591694e-06,-0.018,-0.013,0.9989659243807035,2.4569262063733888e-06,0.9941232317977485,1.0021087765307717,Mirovanje
0.006576923076923077,2.417159763313555e-06,0.003,0.011,0.9985961538461539,1.7022928996413e-06,0.996,1.001,-0.015365384615384621,1.5203402366861546e-06,-0.019,-0.013,0.9987379825430196,1.7114566680520582e-06,0.9961254941020233,1.0011688169334878,Mirovanje
0.006653846153846155,2.2071005917159475e-06,0.003,0.01,0.9986634615384614,3.3194341719777753e-06,0.994,1.004,-0.015163461538461542,1.3482803254436589e-06,-0.018,-0.013,0.998802521739975,3.311027405139555e-06,0.9941534086849977,1.004115531201465,Mirovanje
0.006682692307692308,1.7166235207100342e-06,0.003,0.009,0.99875,1.8990384617056932e-06,0.996,1.004,-0.015125000000000003,1.897836538461439e-06,-0.019,-0.011,0.9988886830017706,1.8989709882344386e-06,0.9961254941020232,1.0041299716670147,Mirovanje
0.006298076923076924,2.324611686390504e-06,0.003,0.011,0.9986538461538461,2.514792899810381e-06,0.995,1.003,-0.015461538461538468,1.7677514792896693e-06,-0.019,-0.013,0.9987954358558018,2.513852080499035e-06,0.9951256202108355,1.0031296027931784,Mirovanje
0.006451923076923078,1.8823039940827886e-06,0.003,0.01,0.9990192307692307,2.403476331513943e-06,0.995,1.003,-0.015211538461538467,1.3975591715974125e-06,-0.018,-0.013,0.999157508243506,2.3987206282383156e-06,0.9951311471358939,1.0031221261641077,Mirovanje
0.0066442307692307695,1.9599667159762846e-06,0.003,0.011,0.9984807692307691,2.4996301777324703e-06,0.993,1.002,-0.015067307692307698,1.9089312130176218e-06,-0.018,-0.012,0.9986184905704563,2.4949061677714823e-06,0.9931379561772875,1.0020968017112917,Mirovanje
0.006846153846153848,1.784023668639011e-06,0.004,0.011,0.9988846153846155,2.025147929463067e-06,0.995,1.001,-0.015557692307692309,1.6312869822484157e-06,-0.019,-0.013,0.9990309311723823,2.025483919476656e-06,0.9951256202108355,1.0011763081495686,Mirovanje
0.006855769230769233,2.0849667159762605e-06,0.004,0.01,0.9988269230769231,1.8161982252573594e-06,0.996,1.002,-0.015451923076923084,1.2669193786979394e-06,-0.018,-0.013,0.998971644359884,1.807611062831782e-06,0.9961305135372573,1.0021442012006057,Mirovanje
0.006634615384615386,1.9434171597632673e-06,0.003,0.01,0.9988653846153847,2.1549556211697407e-06,0.996,1.003,-0.015153846153846158,1.226331360946499e-06,-0.018,-0.013,0.9990039500085108,2.146328930807684e-06,0.9961254941020233,1.003102188214142,Mirovanje
0.0061634615384615395,2.040588017751455e-06,0.003,0.01,0.9988173076923075,2.149315828425813e-06,0.994,1.002,-0.015365384615384618,1.4049556213015073e-06,-0.018,-0.012,0.998956228542119,2.145764597560884e-06,0.9941609527636861,1.0021247427341566,Mirovanje
0.006586538461538462,1.6848187869822115e-06,0.004,0.01,0.9988269230769229,2.4315828408560947e-06,0.995,1.002,-0.015211538461538467,1.3783284023667283e-06,-0.019,-0.012,0.9989659985191269,2.424187298899483e-06,0.9951311471358939,1.00213023105782,Mirovanje
0.006461538461538463,2.286982248520664e-06,0.003,0.009,0.9988461538461538,2.591715976607567e-06,0.994,1.002,-0.015692307692307696,1.424556213017571e-06,-0.018,-0.012,0.9989921676208581,2.5913398716825853e-06,0.9941378174076269,1.002174136565098,Mirovanje
0.006769230769230771,1.889053254437808e-06,0.003,0.01,0.9989134615384615,3.0213572481674333e-06,0.995,1.003,-0.015615384615384621,1.8136094674553493e-06,-0.018,-0.012,0.9990602940481466,3.0192410462870356e-06,0.9951467228504549,1.0031301012331348,Mirovanje
0.006423076923076925,1.609467455621274e-06,0.003,0.009,0.9989903846153846,2.586446006147547e-06,0.996,1.003,-0.015817307692307696,1.2070081360943683e-06,-0.019,-0.013,0.9991376557267768,2.5795241852533124e-06,0.9961209765886873,1.0031400699802593,Mirovanje
0.0037211538461538463,1.4893398668639052e-05,-0.004,0.009,0.3271153846153846,0.8892716213017755,-1.0,1.002,0.00020192307692307643,0.00048468038091715933,-0.019,0.034,0.9983919120846854,3.14757619379602e-06,0.9924535253602558,1.0021367172197613,Mirovanje
-0.0006442307692307692,1.4407359467455607e-06,-0.004,0.003,-0.9964903846153845,1.9422152381931568e-06,-0.999,-0.993,0.03128846153846155,1.6283284023663278e-06,0.029,0.035,0.9969832038054377,1.9720990754867884e-06,0.993455082024346,0.9996129250865057,Mirovanje
-0.0004903846153846154,1.1345229289940822e-06,-0.004,0.002,-0.9963076923076923,2.636094675434464e-06,-1.0,-0.992,0.031548076923076936,1.670765532543663e-06,0.028,0.035,0.9968085761945926,2.643194139895222e-06,0.9924535253602558,1.0004808843751087,Mirovanje
-0.0002403846153846154,9.710613905325443e-07,-0.003,0.002,-0.9963365384615384,2.2809726342165604e-06,-1.0,-0.993,0.031201923076923085,1.3342270710051986e-06,0.029,0.034,0.9968261710853752,2.286562347686427e-06,0.9934233739951964,1.0004498987955368,Mirovanje
-0.00048076923076923085,1.2111686390532536e-06,-0.004,0.003,-0.9964903846153846,2.269138314026087e-06,-1.001,-0.993,0.03149038461538463,1.3268306213011852e-06,0.028,0.034,0.9969892142005274,2.2759985839337915e-06,0.9934535721411444,1.001479904940683,Mirovanje
-9.615384615384615e-05,1.3369082840236678e-06,-0.003,0.004,-0.9966826923076924,2.6589312139835286e-06,-1.001,-0.992,0.031240384615384625,1.5479844674547855e-06,0.028,0.034,0.9971736340106558,2.647480136674929e-06,0.9925164986034237,1.0014804042016996,Mirovanje
-0.0004423076923076923,1.035133136094674e-06,-0.003,0.002,-0.9965673076923076,3.918546598646877e-06,-1.001,-0.991,0.031451923076923086,1.3246116863901546e-06,0.029,0.034,0.997064775846322,3.928920370044331e-06,0.991454487104678,1.001511357898651,Mirovanje
-0.00014423076923076922,1.7580436390532538e-06,-0.004,0.004,-0.9967211538461538,2.220321746793097e-06,-1.001,-0.993,0.030913461538461546,1.1367418639045062e-06,0.028,0.033,0.9972018967769676,2.2136028801078567e-06,0.9934530688462339,1.001479904940683,Mirovanje
-0.00036538461538461545,1.2511094674556208e-06,-0.003,0.003,-0.9969999999999999,2.3076923088005685e-06,-1.001,-0.994,0.03136538461538463,1.116494082838669e-06,0.028,0.034,0.9974945079067901,2.302849637203508e-06,0.9944832829163093,1.0015158510977245,Mirovanje
-0.0005865384615384615,1.6078957100591708e-06,-0.004,0.005,-0.9965480769230768,2.3823039954073977e-06,-1.0,-0.991,0.03136538461538462,1.8664940828394191e-06,0.028,0.036,0.9970434631622713,2.390257692552744e-06,0.9915830777095785,1.0005123687391375,Mirovanje
-0.0005288461538461539,1.441475591715975e-06,-0.005,0.002,-0.996548076923077,2.766919379504351e-06,-1.001,-0.992,0.031326923076923086,1.3738905325433662e-06,0.028,0.034,0.9970418924969912,2.772298326347844e-06,0.9924540291620565,1.0014499488242035,Mirovanje
-0.0001346153846153846,8.857248520710058e-07,-0.002,0.003,-0.9969615384615385,3.171597633633283e-06,-1.001,-0.993,0.03095192307692309,1.680380917158707e-06,0.027,0.033,0.9974431963319497,3.156629565070901e-06,0.9934233739951964,1.001451446651309,Mirovanje
-0.00021153846153846152,8.39866863905325e-07,-0.003,0.002,-0.9963461538461538,3.034023669634678e-06,-1.0,-0.992,0.031240384615384628,1.1441383136079775e-06,0.029,0.035,0.9968368207669083,3.0354556309619696e-06,0.9925159948333326,1.0005463507504286,Mirovanje
-0.0003076923076923077,1.174556213017751e-06,-0.004,0.003,-0.9964519230769231,2.4399963027832428e-06,-1.0,-0.992,0.031211538461538475,1.2244822485191946e-06,0.029,0.034,0.9969418579487189,2.4607159103684495e-06,0.9924842568020915,1.0005783327656061,Mirovanje
-0.0001923076923076923,9.437869822485206e-07,-0.003,0.003,-0.9967884615384615,2.5321745570350274e-06,-1.001,-0.994,0.03139423076923078,1.681120562129412e-06,0.029,0.035,0.9972840702478928,2.5120759503671763e-06,0.9944531160391625,1.0015118571439878,Mirovanje
-0.00036538461538461545,7.703402366863902e-07,-0.003,0.002,-0.9966826923076924,2.6781619826277137e-06,-1.001,-0.991,0.03112500000000001,1.3016826923065421e-06,0.028,0.034,0.9971696915929017,2.6446300559479496e-06,0.9914539827949657,1.0015118571439878,Mirovanje
-0.00016346153846153849,1.2713572485207094e-06,-0.005,0.003,-0.9967403846153846,2.249907545492924e-06,-1.0,-0.993,0.031134615384615393,9.434171597622401e-07,0.029,0.034,0.9972276528988608,2.2582938296045185e-06,0.9934837693691829,1.0004803846153107,Mirovanje
-0.0006923076923076923,1.0014792899408277e-06,-0.004,0.001,-0.9964903846153845,3.576830621465632e-06,-1.001,-0.991,0.031086538461538474,1.7521264792882442e-06,0.028,0.034,0.9969767803983954,3.5685772187266096e-06,0.9915170195210973,1.0014494495480037,Mirovanje
-0.00025,1.2067307692307686e-06,-0.004,0.002,-0.9965480769230768,2.266919380433663e-06,-1.001,-0.992,0.031519230769230785,1.3457840236672045e-06,0.028,0.035,0.9970477080314726,2.2813707255542326e-06,0.9924842568020915,1.0015133548785056,Mirovanje
4.807692307692308e-05,6.996116863905322e-07,-0.002,0.004,-0.9967211538461538,1.8549371316733954e-06,-1.0,-0.993,0.031153846153846164,1.6686390532533743e-06,0.028,0.034,0.9972091111349214,1.834823346147374e-06,0.9934530688462339,1.0004803846153107,Mirovanje
-0.0001826923076923077,5.916235207100586e-07,-0.003,0.002,-0.9968846153846154,1.94822485310997e-06,-1.001,-0.994,0.031096153846153853,1.4907544378688813e-06,0.028,0.034,0.9973705528587697,1.951444038583716e-06,0.9944526132501237,1.0015118571439878,Mirovanje
0.0,9.230769230769227e-07,-0.002,0.003,-0.9967307692307692,2.1775147939218087e-06,-1.0,-0.992,0.031230769230769242,1.677514792898364e-06,0.028,0.035,0.9972212279239775,2.1879624102494333e-06,0.9924243044182262,1.0005443518405368,Mirovanje
-0.0005288461538461539,1.2107063609467451e-06,-0.005,0.002,-0.9967115384615384,1.9937130191216568e-06,-1.0,-0.992,0.03118269230769232,1.3416235207083446e-06,0.029,0.035,0.9972006215154151,1.997372346740356e-06,0.9924535253602558,1.0004498987955368,Mirovanje
-0.0004807692307692308,1.3650147928994079e-06,-0.005,0.002,-0.9965673076923077,2.168546598513288e-06,-1.0,-0.994,0.03085576923076924,1.758043639052691e-06,0.028,0.034,0.997046546629848,2.183853494486243e-06,0.9944229482468715,1.0004498987955368,Mirovanje
-5.769230769230768e-05,9.400517751479295e-06,-0.003,0.029,-0.9967596153846152,2.894138314779582e-06,-1.001,-0.992,0.03087500000000001,1.2632211538451737e-06,0.028,0.033,0.997243020893788,2.9149709395159817e-06,0.9924555405659238,1.001479904940683,Mirovanje
-0.0002980769230769231,7.861501479289935e-07,-0.003,0.002,-0.9966057692307692,2.969582101552959e-06,-1.001,-0.991,0.031375000000000014,1.2920673076910645e-06,0.028,0.034,0.9971006168848474,2.9463463181444993e-06,0.9915170195210973,1.0014819019832557,Mirovanje
-0.00035576923076923074,1.2868897928994075e-06,-0.004,0.003,-0.9963461538461538,2.0724852081155376e-06,-1.001,-0.992,0.030903846153846167,1.5869082840223566e-06,0.028,0.034,0.9968268239812331,2.061837641398334e-06,0.9925164986034237,1.0014804042016996,Mirovanje
-0.00022115384615384616,1.0183986686390528e-06,-0.004,0.002,-0.9965192307692307,1.845784024845365e-06,-0.999,-0.993,0.030971153846153857,1.3741678994071095e-06,0.028,0.034,0.9970016261654037,1.8343466177128676e-06,0.9934837693691829,0.9995143820876217,Mirovanje
-0.0003557692307692308,1.3253513313609462e-06,-0.004,0.002,-0.9966634615384614,1.6655880191729366e-06,-1.0,-0.993,0.030971153846153857,1.7587832840228537e-06,0.027,0.034,0.9971461619762855,1.6758867326105431e-06,0.9934842726485407,1.0004808843751087,Mirovanje
-0.0003557692307692308,1.3445821005917153e-06,-0.004,0.002,-0.9966442307692307,2.3061205635110937e-06,-1.0,-0.993,0.03087500000000001,1.2439903846140016e-06,0.028,0.034,0.9971237192774576,2.2980696748886587e-06,0.9934842726485407,1.0005138679698546,Mirovanje
-0.0004807692307692308,9.034763313609466e-07,-0.003,0.002,-0.9964903846153846,1.749907545423035e-06,-0.999,-0.993,0.030836538461538467,1.5982803254429873e-06,0.027,0.035,0.9969687566589255,1.759784417409982e-06,0.9934535721411444,0.9996129250865057,Mirovanje
-0.0003557692307692308,1.6715051775147922e-06,-0.004,0.003,-0.9966442307692307,2.4599667161062655e-06,-1.001,-0.993,0.03105769230769232,1.2466715976321022e-06,0.028,0.034,0.997129550508699,2.4671946274867906e-06,0.9934837693691829,1.0015438083279231,Mirovanje
-0.00015384615384615385,1.0917159763313608e-06,-0.004,0.003,-0.9960865384615384,2.405972634011988e-06,-1.0,-0.991,0.030826923076923085,1.989275147928405e-06,0.028,0.035,0.996565000276038,2.402147897595519e-06,0.9914847452179988,1.0004883807421254,Mirovanje
-0.00036538461538461545,1.4818786982248512e-06,-0.003,0.003,-0.9967596153846153,2.5479844684150876e-06,-1.001,-0.993,0.030923076923076935,1.013313609466316e-06,0.028,0.033,0.9972404788806893,2.5715125828718044e-06,0.9935154754708152,1.0014499488242035,Mirovanje
-0.0004807692307692308,7.688609467455618e-07,-0.003,0.002,-0.996326923076923,2.623890533515194e-06,-1.0,-0.992,0.03068269230769232,1.5820081360940928e-06,0.027,0.034,0.9968005562376286,2.6222382003560085e-06,0.9924842568020915,1.0004808843751087,Mirovanje
-0.00021153846153846152,1.1667899408284017e-06,-0.004,0.002,-0.9965961538461537,2.240754439220005e-06,-1.001,-0.994,0.031115384615384625,1.6597633136082764e-06,0.028,0.034,0.9970832095905198,2.24622959066334e-06,0.9944526132501237,1.001511357898651,Mirovanje
-0.0004038461538461539,1.1253698224852066e-06,-0.003,0.002,-0.9967115384615384,2.589866865299051e-06,-1.0,-0.992,0.031173076923076935,1.2008136094660699e-06,0.029,0.034,0.9972001515400781,2.5885376765399926e-06,0.9925487393574182,1.0005123687391375,Mirovanje
-0.00020192307692307691,1.0649963017751476e-06,-0.004,0.003,-0.9971057692307691,1.2979197485996075e-05,-1.03,-0.993,0.03098076923076924,1.2496301775135124e-06,0.028,0.033,0.997588149267869,1.2942132615711976e-05,0.9934535721411444,1.0304368005850721,Mirovanje
9.615384615384616e-06,9.71061390532544e-07,-0.003,0.002,-0.996625,2.0612980781153922e-06,-1.0,-0.992,0.030528846153846163,1.518398668637973e-06,0.028,0.033,0.997093727112124,2.0512767303637602e-06,0.9925487393574182,1.0004803846153107,Mirovanje
8.340016711426958e-21,6.923076923076922e-07,-0.002,0.002,-0.9964230769230767,2.494082841697498e-06,-1.0,-0.993,0.030634615384615392,1.4626479289934786e-06,0.028,0.034,0.9968949638817481,2.507910284998971e-06,0.9934837693691829,1.0005443518405368,Mirovanje
-0.0001730769230769231,1.0661982248520706e-06,-0.004,0.003,-0.996778846153846,2.5376294386925125e-06,-1.001,-0.993,0.030855769230769246,1.3349667159753614e-06,0.028,0.034,0.9972575301889193,2.533866112264249e-06,0.9934842726485407,1.0014804042016996,Mirovanje
-0.0003076923076923077,1.059171597633136e-06,-0.003,0.002,-0.9967403846153846,2.538369082927261e-06,-1.001,-0.994,0.031115384615384625,1.3520710059163532e-06,0.028,0.033,0.9972271928995513,2.5315109118961843e-06,0.9944526132501237,1.0014804042016996,Mirovanje
-0.00015384615384615385,8.994082840236681e-07,-0.003,0.002,-0.9964903846153845,2.0768306224772104e-06,-0.999,-0.992,0.03107692307692309,1.8017751479280008e-06,0.027,0.034,0.996976227098137,2.066062702588134e-06,0.9925492431108897,0.9995123811139109,Mirovanje
-0.0002403846153846154,1.1441383136094668e-06,-0.004,0.004,-0.9964711538461538,1.9607063623805487e-06,-1.001,-0.994,0.031096153846153853,2.3753698224842582e-06,0.026,0.035,0.9969580338875932,1.9478977536513398e-06,0.9944229482468715,1.001479904940683,Mirovanje
-0.00042307692307692304,1.4363905325443782e-06,-0.004,0.003,-0.9968269230769231,2.3931213024575015e-06,-1.001,-0.992,0.03093269230769232,1.8127773668628454e-06,0.028,0.034,0.9973084746105628,2.3737776447818604e-06,0.9924847605882924,1.001479904940683,Mirovanje
-0.000125,9.362980769230764e-07,-0.003,0.003,-0.9966057692307692,1.8157359484849422e-06,-1.0,-0.994,0.03059615384615386,1.5099852070989692e-06,0.027,0.035,0.9970765447475295,1.8254527894834283e-06,0.9944526132501237,1.0005118689950658,Mirovanje
-0.0006346153846153846,1.0395710059171596e-06,-0.004,0.002,-0.9966442307692307,2.883043640045102e-06,-1.002,-0.992,0.030740384615384624,1.5960613905316315e-06,0.028,0.033,0.9971197195936229,2.8801821506663217e-06,0.9924535253602558,1.0024490011965694,Mirovanje
-0.0002788461538461539,1.489552514792898e-06,-0.003,0.003,-0.9962980769230769,2.4592270720935616e-06,-1.0,-0.993,0.030730769230769242,1.7928994082830113e-06,0.028,0.034,0.9967735918846296,2.464213721520281e-06,0.9934535721411444,1.0004209114167897,Mirovanje
-0.0003365384615384616,1.2040495562130172e-06,-0.004,0.002,-0.9963173076923076,2.5435465985657046e-06,-1.0,-0.993,0.030692307692307703,1.4437869822472253e-06,0.027,0.033,0.996791339183621,2.526128523694382e-06,0.9934535721411444,1.0004808843751087,Mirovanje
3.846153846153846e-05,1.1908284023668637e-06,-0.003,0.003,-0.996798076923077,3.007303994384536e-06,-1.001,-0.993,0.030913461538461546,1.3290495562118905e-06,0.028,0.034,0.9972785864948197,2.9978419713305726e-06,0.9933966982026868,1.0014494495480037,Mirovanje
-0.0002980769230769231,1.3823039940828396e-06,-0.004,0.003,-0.9965192307692308,1.8842455629108912e-06,-1.0,-0.993,0.030653846153846163,1.9186390532530823e-06,0.026,0.033,0.9969922783286612,1.9065684102592684e-06,0.9934530688462339,1.0005448515683841,Mirovanje
-1.0209326923076925,0.016956408931212863,-1.392,-0.887,0.035548076923076925,0.011585632303994082,-0.305,0.483,-0.12732692307692306,0.023709989275147954,-0.516,0.317,1.0462381311776643,0.01741717671602272,0.9249140500608691,1.4072981205132051,Jaz
-0.9404326923076923,0.05598741854659772,-1.499,-0.328,0.05660576923076922,0.03331816188979291,-0.376,0.437,-0.038086538461538456,0.08403667520340236,-0.737,0.879,1.0036213029257648,0.05515498223666748,0.6416361897524172,1.754758672866443,Jaz
-0.9754615384615385,0.07307849852070991,-1.743,-0.592,0.05617307692307691,0.03914141235207102,-0.542,0.512,-0.02,0.11341121153846154,-0.768,0.95,1.0426529897471382,0.09358649297135369,0.6065220523608353,2.007772397459433,Jaz
-1.017048076923077,0.09503141115014757,-1.642,-0.33,0.03878846153846154,0.04036458986686391,-0.432,0.549,-0.016173076923076925,0.12905020081360946,-0.751,1.008,1.0940278675842678,0.10370213071824996,0.46935381110629115,1.8482911026134383,Jaz
-1.0026826923076924,0.11580050508505968,-1.748,-0.288,0.06809615384615385,0.03427237536982248,-0.396,0.503,-0.023105769230769232,0.1368622291974852,-0.807,1.061,1.082749710999199,0.12513171717730476,0.49778509419226286,1.9495963684824609,Jaz
-1.0267211538461538,0.09695554724482247,-1.764,-0.52,0.0731923076923077,0.04010215532544378,-0.514,0.535,-0.004913461538461535,0.11375498289571005,-0.657,0.92,1.093863170740102,0.1138136329291799,0.5560980129437616,1.8312686859114913,Jaz
-1.0007307692307692,0.08790221597633163,-1.904,-0.272,-0.013538461538461536,0.07114417159763313,-0.739,0.407,-0.055894230769230765,0.06907742150517752,-0.501,0.977,1.0695491103416352,0.08895803710587802,0.49398076885644043,1.926980280127433,Jaz
-1.0020865384615385,0.11361948289570978,-1.852,0.004,0.00397115384615385,0.06860177801405327,-0.753,0.649,-0.11970192307692308,0.07110234384245565,-1.009,0.839,1.085139781819275,0.0943170096824466,0.6104572057073289,1.9175883291259364,Jaz
-1.0558269230769233,0.07480202773668587,-1.7,-0.281,-0.008740384615384613,0.09403240375369822,-0.811,0.58,-0.04513461538461539,0.12461334726331352,-0.728,1.158,1.1479949251768167,0.09243944984519836,0.43115426473595275,1.9838722237079687,Jaz
-1.0259326923076924,0.07315531277736653,-1.661,-0.368,0.07274038461538461,0.04881698067677515,-0.346,0.528,-0.05245192307692308,0.09497090153476327,-0.665,1.012,1.0958949520474381,0.07653770600002074,0.4600804277514965,1.8030399330020397,Jaz
-0.9819711538461539,0.12099033570636142,-1.956,-0.328,0.0455,0.04753161538461535,-0.549,0.596,-0.01248076923076923,0.1092826727071006,-0.633,1.016,1.0551097115205432,0.13104148703965168,0.3914651964095914,2.043737752256879,Jaz
-0.9653846153846154,0.12386514053254416,-2.161,-0.29,0.05155769230769231,0.04316013128698226,-0.481,0.727,-0.08350961538461538,0.11173619221523665,-0.802,0.816,1.042119532125935,0.13434785191546816,0.4206732698900656,2.1938142583181466,Jaz
-0.9785288461538462,0.1046668645525145,-1.63,-0.253,0.06969230769230769,0.06779534763313608,-0.628,0.621,0.013153846153846155,0.1225011878698225,-0.882,0.978,1.0698469458478956,0.11293965669069861,0.4909786146055651,1.9196895582359144,Jaz
-1.0125961538461539,0.10533393306213013,-1.758,-0.485,0.041413461538461545,0.06123858866494085,-0.5,0.728,-0.040336538461538465,0.1281632232803255,-0.563,1.351,1.0933957303550648,0.1279146037643919,0.5406200144278789,2.1943153829839503,Jaz
-1.0065865384615384,0.12284043481878726,-2.122,-0.266,0.08291346153846155,0.02797902135724852,-0.437,0.515,-0.016451923076923072,0.11095715153476332,-0.821,0.87,1.0761917076734684,0.12394978333486395,0.5065540445006831,2.167106134918177,Jaz
-0.972625,0.07572700360576912,-1.697,-0.266,0.03208653846153846,0.036091521357248524,-0.512,0.507,-0.08589423076923076,0.08471095996671596,-0.827,0.751,1.0324718495966119,0.08493812017516666,0.4339688928944101,1.7465926829115026,Jaz
-0.9879711538461537,0.12855383570636125,-2.584,-0.331,0.013096153846153842,0.06749470229289942,-0.529,0.605,-0.08596153846153848,0.06252788313609467,-0.584,0.599,1.0527670635178177,0.13390582727976374,0.37326398165373526,2.6686599633523937,Jaz
-1.0386346153846153,0.05803567418639077,-1.585,-0.329,0.05108653846153847,0.055987655972633124,-0.337,0.637,0.03466346153846154,0.10321593481878703,-0.743,0.7,1.1181560643489552,0.04953953499042396,0.658,1.644445803302742,Jaz
-0.9744423076923078,0.09491884282544394,-1.667,-0.26,0.04238461538461538,0.05276648668639053,-0.626,0.53,-0.010778846153846154,0.11321722993713018,-0.74,1.197,1.0501716798441765,0.10949245246864514,0.3928880247602362,1.9239485440104682,Jaz
-0.9411442307692307,0.06459716188979325,-1.614,-0.488,0.06304807692307693,0.04822008422707101,-0.452,0.626,-0.05221153846153847,0.11528439755917165,-0.692,1.086,1.0184887518596142,0.0832358738739063,0.5885550101732209,1.8588418437295844,Jaz
-0.9987019230769232,0.07689192076553197,-1.774,-0.39,0.041798076923076924,0.056974891919378684,-0.68,0.699,-0.023259615384615386,0.08268326913831359,-0.643,0.782,1.063506485764474,0.0851976566599757,0.6269274280169914,1.936560094600733,Jaz
-1.0181634615384616,0.11309034828032516,-1.919,-0.17,0.019144230769230774,0.10892006573594676,-0.613,0.951,-0.046125,0.110627859375,-0.62,1.074,1.122971407518611,0.11072434289566946,0.534004681627418,1.9768576074163764,Jaz
-1.020201923076923,0.10977062268860927,-1.671,-0.452,0.0957403846153846,0.060288384522929006,-0.46,0.729,0.007673076923076915,0.11192316235207098,-0.747,0.983,1.0987046178463755,0.12486739349228104,0.5181119570131537,1.8463342059334762,Jaz
-0.9653269230769231,0.10326343158284013,-1.731,-0.22,0.042769230769230775,0.06057777366863904,-0.634,0.695,-0.044625,0.09431798437499998,-0.881,0.75,1.0405962730126324,0.11099525236145014,0.42903379820242604,1.7480188786165898,Jaz
-1.0163653846153846,0.14063542418639052,-2.23,-0.111,0.032,0.0901010961538462,-0.498,0.753,-0.06438461538461539,0.07841735207100586,-0.868,0.777,1.0954879399727688,0.14722801952806552,0.2753924472457442,2.313897361595799,Jaz
-1.0359038461538463,0.08164966383136085,-1.671,-0.428,0.10705769230769231,0.06609805436390534,-0.367,0.783,-0.012490384615384615,0.1292376537536982,-0.913,0.894,1.125732877323372,0.09442499852862629,0.5607084804067083,1.7782027443460997,Jaz
-0.9987692307692306,0.11684119674556259,-1.873,-0.289,0.031365384615384614,0.06027402034023668,-0.588,0.767,0.002163461538461536,0.09987309828032544,-0.598,0.769,1.0745499638850309,0.12085913473006338,0.5126412000610173,1.9761826838630077,Jaz
-0.9580480769230769,0.09751794961168636,-1.752,-0.347,0.061375000000000006,0.03971409975961539,-0.342,0.531,-0.020865384615384616,0.12349198187869824,-0.664,1.066,1.0326648451880454,0.11638572135890435,0.5299556585224844,2.0456280209265807,Jaz
-0.9765865384615384,0.11498780020340194,-1.813,-0.356,0.052798076923076934,0.061878603457840194,-0.578,0.548,-0.03425961538461539,0.10967113452292898,-0.627,0.942,1.054427192697302,0.1324034587620253,0.5203594911212824,1.8691161012628403,Jaz
-1.028423076923077,0.1255877248520707,-1.947,-0.183,0.04656730769230769,0.060744380085059176,-0.613,0.609,-0.039932692307692315,0.1265312358542899,-0.862,0.936,1.1152160390848616,0.13057368616787257,0.5604052105396594,1.9901140670825883,Jaz
-0.9847788461538461,0.15474821070636047,-1.766,-0.062,0.08887500000000001,0.08231409014423079,-0.59,0.849,0.022230769230769235,0.15702950443786987,-1.091,0.92,1.1006603783181055,0.16082088544679896,0.4990761464947008,1.8161921704489314,Jaz
-1.011326923076923,0.10774937389053241,-1.735,-0.436,0.08279807692307693,0.05860925730399408,-0.543,0.597,-0.013499999999999995,0.11781717307692308,-0.705,1.126,1.0889688544082459,0.12814255528263852,0.4854564862065394,2.044759399049189,Jaz
-0.9844326923076923,0.09868626470044395,-1.607,-0.28,0.03825,0.03411651442307693,-0.398,0.426,-0.04614423076923077,0.11714539265902368,-0.743,0.959,1.0561188036512763,0.10726132257419696,0.3890629769073382,1.820930805934152,Jaz
-0.9839615384615384,0.08619813313609448,-1.739,-0.492,0.04484615384615384,0.0707814571005917,-0.527,0.708,-0.10141346153846155,0.038627761741863886,-0.814,0.401,1.041876325855014,0.0905772504690101,0.549204879803521,1.787566222549531,Jaz
-1.0370865384615384,0.08702600212647948,-1.779,-0.484,0.03725961538461539,0.052041557599852066,-0.441,0.603,-0.03550961538461539,0.10300528836908283,-0.646,0.998,1.1036822451497643,0.10215604981809845,0.5512041364140876,1.8769709640801586,Jaz
-1.0452788461538463,0.08714454724482223,-1.81,-0.444,0.033999999999999996,0.06794361538461538,-0.741,0.639,-0.0012500000000000033,0.12093218749999998,-0.722,1.023,1.1289454729915147,0.09526789785811918,0.5466882109575805,1.8318965582150102,Jaz
-1.005596153846154,0.12040835613905343,-1.997,0.035,0.046942307692307686,0.09305020821005912,-0.96,0.73,0.018826923076923074,0.0988037392751479,-1.19,0.818,1.1003107810319253,0.11536014668337646,0.48752230718193806,2.001010244851335,Jaz
-1.0088076923076923,0.0740015976331363,-1.763,-0.434,-0.022576923076923074,0.1362295133136094,-0.809,0.787,-0.15014423076923075,0.08035925804363907,-0.929,0.733,1.117578709648505,0.08235416427884457,0.48353903668680154,1.870260409675615,Jaz
-0.9402884615384615,0.057775166789940435,-1.603,-0.41,0.06973076923076922,0.03775067751479289,-0.39,0.581,-0.04045192307692307,0.0921913246116864,-0.593,0.897,1.0065453615330617,0.06522473325320122,0.5583457710057451,1.6806825994220325,Jaz
-0.9947884615384616,0.11234258986686418,-1.79,-0.218,0.05358653846153846,0.0390837617418639,-0.412,0.486,-0.0421826923076923,0.11655593777736685,-0.703,0.971,1.0692955279724141,0.11884434308896519,0.5249314240927094,1.8594289445956251,Jaz
-1.0040192307692306,0.12275499963017822,-1.741,-0.11,0.06707692307692308,0.048141532544378696,-0.615,0.546,-0.02128846153846154,0.10683872448224849,-0.653,0.858,1.0793877513991963,0.12566446674477194,0.41542989781670747,1.8596574953469254,Jaz
-1.0225865384615385,0.0954734540495561,-1.896,-0.246,0.035557692307692304,0.0671664774408284,-0.674,0.948,-0.03675961538461539,0.10110574029215975,-0.814,0.966,1.100025319588754,0.10198881549442929,0.6496853084378621,1.9509761659231002,Jaz
-1.0019519230769232,0.08100056499630148,-1.61,-0.283,0.015807692307692307,0.08982588609467457,-0.869,0.93,-0.029057692307692305,0.08725740051775142,-0.661,0.953,1.0813816075477147,0.09369955924213547,0.5372987995519812,1.9059129046207752,Jaz
-0.9888173076923076,0.09466891854659742,-1.867,-0.503,0.029,0.07698061538461538,-0.8,0.757,-0.08509615384615386,0.04980833690828402,-0.6,0.873,1.053784068088342,0.09683903207395361,0.5253779591874786,1.8947957673585825,Jaz
-1.049076923076923,0.08282534023668608,-1.781,-0.515,0.07375,0.08216837980769232,-0.555,0.63,-0.03503846153846153,0.134973325443787,-0.779,1.139,1.140846403391537,0.10566567617628642,0.5599669633112296,2.088749625972438,Jaz
-1.0287115384615384,0.14296010909763313,-2.401,0.0,0.013951923076923075,0.08239941115014796,-0.767,0.634,-0.03365384615384615,0.10088774556213018,-0.704,0.906,1.1142852685310987,0.14419027302688492,0.2885862089566998,2.4277370121164275,Jaz
-0.9518365384615385,0.10531611751109493,-1.812,-0.353,0.029490384615384616,0.05491380759985207,-0.642,0.582,0.018144230769230767,0.11476341188979287,-0.543,1.11,1.0297370252884603,0.12182668759622661,0.5236009931235807,1.9434868149797158,Jaz
-0.9568173076923077,0.14538305316198252,-1.733,-0.152,0.07817307692307694,0.09212308542899407,-0.673,0.863,-0.05828846153846154,0.14699543602070997,-0.979,0.993,1.0701230395896695,0.16434618975475113,0.4379817347789745,2.04604545404055,Jaz
-0.9798461538461538,0.12378343786982293,-1.694,-0.26,0.07557692307692307,0.07462645562130177,-0.636,0.719,-0.011028846153846151,0.12789743186020708,-0.72,0.968,1.0712056606059572,0.14475774999344648,0.4952847665737358,1.961349535396483,Jaz
-1.015125,0.11574460937499986,-1.775,-0.392,0.04941346153846153,0.06851353097263314,-0.593,0.723,-0.03721153846153847,0.14139201294378698,-0.656,1.17,1.106798461869,0.13495247249672349,0.5193881015194707,1.9222741739928775,Jaz
-1.0157788461538462,0.1682032107063609,-2.129,0.003,0.07370192307692308,0.06640161307322484,-0.729,0.584,-0.04672115384615384,0.14161577801405326,-0.807,0.927,1.1168425613428785,0.16830479894230943,0.3311721606657178,2.1589258903445483,Jaz
-1.0085576923076922,0.12426366974852066,-1.886,-0.458,0.07502884615384615,0.05641989339866863,-0.426,0.598,0.026557692307692306,0.1138930928254438,-0.614,1.017,1.081590880828037,0.14826107997116988,0.47478626770369003,2.154439370230687,Jaz
-0.9808557692307692,0.12908343112056175,-1.674,-0.087,0.03168269230769231,0.05699835123890534,-0.831,0.528,-0.03144230769230769,0.1310814774408284,-0.835,1.118,1.068072352284756,0.14045516182336915,0.35212071793633504,2.0259686572106688,Jaz
-0.9836153846153846,0.08836469822485205,-1.719,-0.473,0.014423076923076926,0.051570494082840194,-0.488,0.756,-0.11724038461538464,0.04977585567677516,-0.652,0.677,1.03803637811712,0.09364408347472208,0.5152348978863912,1.7602514024990863,Jaz
-1.0537884615384614,0.07943708986686371,-1.788,-0.505,0.03353846153846153,0.05891594082840234,-0.561,0.646,-0.036548076923076926,0.1265309015347633,-0.617,1.209,1.1316245127948472,0.09724060627259323,0.6394137940332536,2.0929897276384324,Jaz
-1.0094615384615386,0.08079107544378705,-1.728,-0.532,0.05811538461538461,0.06206462130177515,-0.544,0.571,-0.014836538461538464,0.09894680981878697,-0.5,0.96,1.082710686374451,0.09215019461056562,0.5645892312115066,1.8097903193464153,Jaz
-0.9540288461538461,0.07096570109097622,-1.745,-0.558,0.06681730769230768,0.08294601470044383,-0.801,0.842,0.034125,0.08035512860576922,-0.498,0.935,1.0297466076331163,0.0896888759911656,0.5786700268719644,1.8727813540293485,Jaz
-1.0210961538461538,0.10464179844674626,-2.287,-0.063,-0.023461538461538457,0.09957047928994084,-0.68,0.936,-0.13302884615384614,0.07201575878328403,-0.909,0.672,1.1101008330002997,0.10478865018742445,0.5105036728565232,2.4960707121393817,Jaz
-0.9878557692307692,0.08219064265902365,-1.536,-0.345,0.047480769230769236,0.03893415347633137,-0.427,0.574,-0.024730769230769223,0.10780825443786982,-0.795,1.093,1.058500768879676,0.08723422805036551,0.5492522189304291,1.888601863813546,Jaz
-1.0145288461538462,0.15294888378328353,-2.146,-0.259,0.07672115384615384,0.04842548955251477,-0.487,0.637,-0.00905769230769231,0.1463061889792899,-0.876,1.266,1.1007995921260558,0.17115777720587833,0.3627257917490842,2.244692183797146,Jaz
-0.986125,0.08440805168269172,-1.743,-0.336,0.045432692307692306,0.03480209162352071,-0.415,0.488,-0.01410576923076923,0.11345461381286984,-0.629,1.024,1.04965312999258,0.10559868169677977,0.36493972104992906,1.990981667419366,Jaz
-0.9876346153846155,0.08281746264792889,-1.657,-0.467,0.015490384615384618,0.03777013452292898,-0.392,0.612,-0.12560576923076922,0.0381030272744083,-0.645,0.372,1.0346906794126685,0.07954471716731915,0.504092253461606,1.6824300877005263,Jaz
-1.0624519230769232,0.09229584384245526,-1.761,-0.356,0.04246153846153847,0.044364113905325436,-0.476,0.518,-0.008730769230769226,0.12292123520710065,-0.557,1.103,1.1357415609522539,0.10035559711035291,0.6057342651691416,2.1120336171566967,Jaz
-0.9918750000000001,0.10537397475961507,-1.851,-0.364,0.049317307692307695,0.06881619739275145,-0.576,0.69,0.007461538461538464,0.09282728698224854,-0.461,1.124,1.0647751999421906,0.1195751197419137,0.5502472171669749,1.9795062515688098,Jaz
-0.9664230769230768,0.057269609467456406,-1.865,-0.175,0.024384615384615387,0.08044833284023668,-0.744,0.86,-0.060701923076923084,0.08081707461168638,-0.859,0.889,1.052488406746963,0.049056067124777725,0.683204947288879,1.8925546227255898,Jaz
-0.9942019230769231,0.0804535265347629,-1.802,-0.362,0.04551923076923077,0.04102398039940828,-0.456,0.567,-0.04873076923076923,0.07611763905325444,-0.663,0.638,1.0507713233435305,0.08635892411580848,0.3962877742247419,1.8704023631293882,Jaz
-0.8569711538461539,0.23327972032174593,-1.756,0.013,0.23882692307692308,0.10058808542899406,-0.505,1.159,0.2703365384615385,0.09721401174186385,-0.454,1.475,1.0665909146617274,0.15798533999182873,0.41843995985087273,1.9922826104747287,Jaz
-0.9261153846153845,0.26450890976331365,-2.028,0.116,0.16005769230769232,0.09855415051775147,-0.658,1.25,0.23735576923076926,0.11784045996671597,-0.654,1.572,1.0834406050693155,0.2467059072101121,0.2526618293292439,2.5780744752624973,Jaz
-0.9366346153846153,0.26848482803254414,-2.124,-0.048,0.1658076923076923,0.10882540532544378,-0.692,1.182,0.2074230769230769,0.11644645562130176,-0.396,1.547,1.0802247859980594,0.2746720271000629,0.3274156379893911,2.352541179235764,Jaz
-0.9202019230769231,0.19742373807322444,-1.749,-0.002,0.12168269230769233,0.069683658931213,-0.625,1.026,0.1618173076923077,0.10035699546967455,-0.707,1.491,1.0398157456147952,0.1740107055561635,0.348845237892106,2.0362332872242317,Jaz
-0.9606057692307691,0.08977789265902358,-1.785,-0.461,0.11798076923076922,0.06103749963017753,-0.286,0.98,0.042980769230769225,0.06416742270710059,-0.765,1.097,1.025016774481221,0.10285367933980605,0.5759210015271192,2.09517970589637,Jaz
-1.0984134615384615,0.10997622328032497,-1.93,-0.336,0.02491346153846154,0.07931598289571005,-0.652,0.689,0.10391346153846154,0.07533504058801774,-0.534,0.93,1.168815178263562,0.11642914636840951,0.5198038091434113,1.9585525267400923,Jaz
-0.9346442307692308,0.2603118061205626,-2.372,0.061,0.1443557692307692,0.1267357676590237,-0.818,1.472,0.25230769230769234,0.13773598224852063,-0.407,2.568,1.0965725551593182,0.280369785117518,0.31112216250212715,3.0357345074956736,Jaz
-0.9169230769230771,0.28190714792899385,-2.509,0.183,0.1588269230769231,0.06453048927514796,-0.457,0.863,0.22728846153846152,0.14337430140532542,-0.693,2.345,1.0594869948799204,0.28493321152646933,0.30834234221073176,3.230016408627052,Jaz
-0.886298076923077,0.25188399768860925,-2.527,-0.033,0.15811538461538463,0.1065615443786982,-0.62,1.56,0.21912500000000001,0.14988447475961547,-0.406,2.71,1.0421715960166995,0.28074890291754384,0.2631919451655008,3.324506128735515,Jaz
-0.8753557692307693,0.10159634458210043,-1.626,-0.276,0.11789423076923077,0.08667905612056212,-0.599,0.862,0.11293269230769229,0.15043194739275143,-1.052,1.083,0.991049661930869,0.1494284810482488,0.3326304255476339,1.9336889615447466,Jaz
-1.0088173076923075,0.1280159185465981,-1.886,-0.414,0.058249999999999996,0.07835355288461542,-0.682,0.768,-0.027048076923076925,0.149549834227071,-0.649,1.288,1.106158226524786,0.15417030481461746,0.4465254751971045,2.3071343697322875,Jaz
-1.0081442307692308,0.12460846958210059,-1.823,-0.474,0.048192307692307694,0.08091357840236683,-0.526,0.628,-0.035375000000000004,0.13513933052884614,-0.62,1.219,1.1004757172048725,0.14954325353472941,0.500532716213436,2.241358070456392,Jaz
-1.0059134615384615,0.10506636751109477,-1.828,-0.445,0.06761538461538462,0.07459796745562133,-0.529,0.729,-0.022153846153846156,0.13263064940828403,-0.647,1.211,1.0931168603092964,0.13431503932293065,0.48018433960303203,2.225855790477002,Jaz
-1.0031923076923077,0.13062740532544326,-2.235,-0.402,0.06277884615384616,0.04267988378328402,-0.318,0.548,-0.005096153846153851,0.13807677921597633,-0.642,1.505,1.0711969635891416,0.17428309404355646,0.4589270094470361,2.7343143564703745,Jaz
-0.973201923076923,0.10179168038091746,-1.832,-0.501,0.007038461538461539,0.048594979289940825,-0.518,0.687,-0.07933653846153847,0.07064137712647932,-0.655,0.901,1.0295939727978654,0.11443009733215437,0.5358861819453828,1.908675980883083,Jaz
-1.0215096153846153,0.08101930759985221,-1.757,-0.48,0.042451923076923075,0.05451367076553256,-0.478,0.641,-0.07357692307692308,0.09834559023668639,-0.635,1.202,1.0858905808518102,0.10541783872501087,0.5097970184298845,2.1425426483503194,Jaz
-1.046875,0.11545757091346132,-2.058,-0.147,0.08493269230769229,0.07719706277736685,-0.718,0.724,-0.023346153846153846,0.12642620710059166,-0.698,1.016,1.1415528581723495,0.11964378353700056,0.3195277765703633,2.131972091749796,Jaz
-0.981625,0.11317156129807682,-1.712,-0.312,0.04016346153846154,0.05485082904955623,-0.654,0.676,0.02484615384615385,0.10462070710059176,-0.483,0.994,1.0526442066998858,0.13040134717809115,0.49232712702023645,1.8655618456647316,Jaz
-0.9352692307692307,0.09195323520710041,-1.507,-0.342,0.07920192307692307,0.05420525730399407,-0.469,0.712,-0.02093269230769231,0.11628977431582832,-0.875,0.845,1.0169668649436723,0.1096663186835618,0.5164745879518178,1.697608612136496,Jaz
-0.9949134615384616,0.11239561751109428,-1.798,-0.386,0.05912499999999999,0.07676005168269232,-0.484,0.821,-0.013076923076923078,0.11111139792899412,-0.686,1.077,1.077435060106332,0.13292032586904945,0.41826905216618643,2.091484162024661,Jaz
-1.0096442307692308,0.09009495996671579,-1.725,-0.49,0.060153846153846155,0.06714093786982249,-0.686,0.552,-0.041874999999999996,0.10239418629807692,-0.55,1.008,1.0854887312373056,0.10609777204913273,0.5330150091695355,1.8940337906172637,Jaz
-1.027153846153846,0.10411405325443823,-1.77,-0.437,0.07329807692307694,0.04444093999630179,-0.381,0.503,-0.0009326923076923128,0.12369308200813608,-0.586,1.175,1.0953106956136218,0.1329610569974804,0.4572209531506622,2.0835724129484916,Jaz
-0.9558653846153846,0.08887777034023692,-1.716,-0.273,0.02430769230769231,0.04503961686390531,-0.493,0.481,-0.089125,0.052813013221153816,-0.673,0.723,1.0104054264690165,0.08802403762350375,0.4246763473517215,1.7543830824537723,Jaz
-1.0379903846153846,0.07762347106139056,-1.696,-0.479,0.021509615384615384,0.06387111529215977,-0.67,0.589,-0.05688461538461538,0.09437414053254436,-0.615,1.044,1.106173323675864,0.09337186644943074,0.5211391368914832,1.9753647764400375,Jaz
-1.0455576923076924,0.09148493897928933,-1.75,-0.472,0.032682692307692315,0.11213035123890526,-0.796,0.823,-0.006644230769230768,0.11971647919748521,-0.639,1.106,1.1456034059326767,0.10522779785391179,0.5191541196985727,1.9439290110495293,Jaz
-0.9962980769230769,0.11653093999630215,-1.796,-0.325,0.04025961538461538,0.08046463452292898,-0.637,0.615,0.01473076923076923,0.09473354289940826,-0.606,0.978,1.0740595123612433,0.13257297159863568,0.47107536552021056,1.8708016998067967,Jaz
-0.9738653846153844,0.06020290495562142,-1.671,-0.286,0.030990384615384618,0.06477368259985206,-0.551,0.978,-0.03934615384615384,0.08648659171597631,-0.639,0.805,1.0450336941067317,0.07029006856625286,0.5647255970823352,1.7313549607171836,Jaz
-1.0145096153846151,0.11343763452292976,-2.209,-0.226,-0.02722115384615385,0.12542530686020711,-0.971,0.77,-0.06501923076923077,0.0731801150147929,-0.81,0.632,1.1089301358589354,0.1165152614761904,0.7045807263898154,2.2247898777187927,Jaz
-1.013951923076923,0.09802771884245542,-1.814,-0.226,0.07112500000000001,0.03655162860576922,-0.368,0.703,-0.06220192307692307,0.08397244961168639,-0.697,0.84,1.0733844591175883,0.10342394715561087,0.42742250759640626,1.94713147989549,Jaz
-1.0100096153846154,0.09684447106139049,-1.655,-0.43,0.06221153846153847,0.056516974482248516,-0.422,0.743,-0.012644230769230769,0.10057074842825442,-0.591,0.857,1.0803556791984124,0.11091337565450665,0.4941022161456069,1.845380448579642,Jaz
-0.9561634615384614,0.09194071366494094,-1.628,-0.108,0.020875,0.05282853245192308,-0.71,0.492,-0.091875,0.06727555168269234,-0.787,0.89,1.0254191172163292,0.08368577827805335,0.4999809996389863,1.8237653357819914,Jaz
-1.0297980769230768,0.07481443038091773,-1.883,-0.538,0.02530769230769231,0.04122607840236686,-0.421,0.631,-0.07173076923076924,0.10007711982248521,-0.559,1.265,1.088922292804113,0.09663573061884945,0.5395183036746761,2.191414611615064,Jaz
-1.0402884615384616,0.08905024371301762,-1.748,-0.45,0.039019230769230764,0.06559869193786974,-0.521,0.929,-0.00776923076923077,0.10394823520710061,-0.643,0.923,1.1158303321338698,0.09730278527463332,0.519481472239386,1.9407959707295355,Jaz
-0.9742500000000001,0.09840337980769254,-1.696,-0.488,0.04935576923076923,0.063635959966716,-0.672,0.712,0.013894230769230763,0.10856451765902371,-0.66,1.164,1.0498892505754407,0.12012852306460053,0.5056925943693461,2.0172679544373873,Jaz
-0.9391153846153846,0.09688827514792919,-1.717,-0.37,0.06334615384615384,0.048006476331360945,-0.475,0.617,-0.04576923076923077,0.11060575443786978,-0.725,0.989,1.0141327168090988,0.1150806019281656,0.5484906562558747,2.006663648945682,Jaz
-1.0100865384615385,0.10005915597263293,-1.943,-0.355,0.03589423076923077,0.1270524022744083,-0.801,1.027,-0.02733653846153846,0.11820366558801769,-0.737,1.168,1.1175471477940644,0.11871409361119767,0.5953486373546177,2.0654169070674326,Jaz
-1.0341057692307691,0.10346947919748462,-1.963,-0.127,-0.0022884615384615387,0.13407116678994083,-0.798,1.193,-0.04113461538461539,0.11460205880177517,-1.123,0.945,1.153095339163901,0.09358587918310413,0.7199173563680765,1.9684311011564515,Jaz
-1.01675,0.07301426442307668,-1.704,-0.39,0.04186538461538462,0.05224305880177514,-0.4,0.806,-0.030326923076923078,0.09757229696745562,-0.889,0.99,1.0872053285549037,0.07726718894643936,0.6284281979669594,1.7539315836143667,Jaz
-0.9782115384615385,0.06548614755917126,-1.621,-0.48,-0.0036634615384615386,0.05202730020340235,-0.578,0.457,-0.07487500000000001,0.043498917067307706,-0.647,0.866,1.0257995288102157,0.07126519207735482,0.5271517807994203,1.6763263405435114,Jaz
-1.0321442307692306,0.10535179650517756,-1.712,-0.109,0.01910576923076923,0.058002479197485225,-0.657,0.557,-0.058807692307692304,0.0875990399408284,-0.505,1.007,1.0971260231900453,0.1164128930853503,0.41811720844758354,2.031507076039855,Jaz
-1.0415673076923075,0.09401663008505934,-1.649,-0.194,0.04956730769230769,0.0555198223927515,-0.591,0.462,-0.02206730769230769,0.1148243127773669,-0.543,1.046,1.1185023534013434,0.101119591204887,0.515731519300498,1.9470197739108865,Jaz
-0.9725865384615384,0.08964960789571019,-1.78,-0.483,0.04859615384615385,0.07154074075443782,-0.577,0.917,0.016442307692307683,0.10031738128698228,-0.436,1.065,1.0478916581323414,0.11198731320126742,0.5205285775055967,2.100995240356341,Jaz
-0.9480288461538462,0.06097664339866837,-1.637,-0.492,0.0518173076923077,0.04650516854659764,-0.447,0.614,-0.049769230769230774,0.1152119275147928,-0.52,1.21,1.018338809873052,0.0896005106140283,0.5243138373150188,2.056985658676307,Jaz
-1.0000576923076923,0.09671461205621279,-1.689,-0.479,0.03821153846153845,0.08999528217455623,-0.713,0.817,-0.00928846153846154,0.1073683398668639,-0.665,1.001,1.084284930237995,0.12006620928955547,0.504922766371254,1.8335891033707632,Jaz
-1.0064326923076925,0.12107461085428994,-1.781,-0.388,0.06675961538461538,0.05392168259985207,-0.551,0.592,-0.027019230769230778,0.11282844193786983,-0.561,1.069,1.0780279422857055,0.1437741402666315,0.4048814641348749,2.080802008841783,Jaz
-0.995798076923077,0.07628529576553211,-1.7,-0.536,0.06019230769230769,0.0383116168639053,-0.446,0.603,0.01906730769230769,0.09306148585428999,-0.56,0.867,1.054785998411487,0.09068538217046762,0.5856705558588378,1.7507247070856113,Jaz
-0.9070961538461538,0.2831983176775146,-2.388,0.089,0.04700961538461538,0.08029052875369821,-0.526,0.824,0.09728846153846155,0.06090020525147928,-0.919,0.729,0.9939286721443416,0.2709932273816934,0.1708186172523358,2.412110486690027,Jaz
-0.9821249999999999,0.38931887860576997,-3.317,-0.144,0.06679807692307692,0.06905314191937874,-0.808,0.728,0.17018269230769228,0.07748713008505913,-0.595,1.273,1.0645967455689407,0.4004865674009439,0.22006589922111966,3.564542326863296,Jaz
-0.9908749999999998,0.304206878605769,-2.378,-0.074,0.07375961538461538,0.035791605676775154,-0.413,0.503,0.13969230769230767,0.04323050147928994,-0.552,0.536,1.0469941204694453,0.2938199847793357,0.11936917525056458,2.421170171631891,Jaz
-1.1331153846153845,0.3035375443786983,-2.68,-0.322,-0.027721153846153843,0.08943960493713016,-0.857,1.02,0.06536538461538462,0.07732228957100593,-0.741,0.698,1.1998761241033529,0.3195882964221002,0.35452503437698163,2.7690447811474628,Jaz
-1.0412788461538462,0.10177693186020664,-2.304,-0.282,0.04682692307692308,0.09670775850591716,-0.782,0.768,-0.01924999999999999,0.06679612980769224,-0.493,0.788,1.116305683132252,0.1059674006527902,0.4463910841403533,2.4600235771227883,Jaz
-0.9520865384615385,0.22930654058801714,-3.039,-0.042,0.11389423076923078,0.0522036522744083,-0.542,0.71,0.11675961538461539,0.07204079798446743,-0.875,0.75,1.0406903652271373,0.20358803487725363,0.5476942577752664,3.049707035110094,Jaz
-0.9831826923076924,0.3296505916235204,-2.709,0.115,0.11113461538461539,0.05043132803254437,-0.434,0.503,0.14833653846153846,0.07730647328032547,-0.578,1.181,1.0710130236492437,0.3113223339429352,0.13264614581660486,2.9813886026481016,Jaz
-0.9779423076923076,0.43181882359467416,-3.416,0.196,0.08337499999999999,0.08627452283653851,-0.951,0.964,0.16245192307692308,0.09119001691937872,-0.698,1.387,1.0856456015940958,0.4203701662009329,0.0844393273303382,3.6900181571368993,Jaz
-1.0128365384615385,0.5182499252034021,-3.751,0.048,0.0799326923076923,0.07684552431582842,-0.629,1.016,0.12052884615384615,0.12149217224482245,-0.946,1.798,1.1069039216690142,0.5381056216552951,0.13124785712536413,4.159819827829085,Jaz
-0.9396634615384615,0.07755999251109513,-1.464,-0.354,0.061182692307692306,0.06710578393121303,-0.474,0.692,0.06459615384615384,0.08803777921597639,-0.31,1.108,1.0168789770130031,0.08954410764745013,0.39267543849851366,1.6561766210160074,Jaz
-0.9487500000000002,0.0781075528846148,-1.593,-0.48,0.10928846153846153,0.08773037832840241,-0.595,0.751,0.01909615384615385,0.10429820229289945,-0.567,1.021,1.0374832303674584,0.1061998736293801,0.5102999118165709,1.8803217809726078,Jaz
-1.0245384615384614,0.0920966715976339,-1.816,-0.511,0.04044230769230769,0.0926941697485207,-0.569,0.871,-0.02586538461538462,0.09254532803254431,-0.612,1.027,1.1068634105713122,0.10417321726151996,0.5374216221924831,1.9077664951455668,Jaz
-1.0153942307692307,0.07654004650517754,-1.694,-0.546,0.04131730769230769,0.07581508200813611,-0.61,0.888,-0.04775961538461538,0.09561456721523671,-0.605,1.092,1.0942916342923916,0.0855090595023027,0.6091149316836684,1.875715596779,Jaz
-1.0284326923076923,0.0843418416235211,-1.934,-0.594,0.04776923076923077,0.04105561982248521,-0.594,0.555,-0.0035096153846153845,0.06983130759985211,-0.466,0.888,1.0759383430977998,0.09755347031350059,0.6245038030308542,1.966970513251279,Jaz
-0.963548076923077,0.07565953615014764,-1.617,-0.261,0.005807692307692315,0.08784369378698223,-0.814,0.811,-0.10229807692307692,0.03312224768860947,-0.792,0.359,1.032146052213324,0.0702235269004503,0.47792258787381037,1.6286543525254213,Jaz
-1.0623076923076924,0.07377427071005926,-1.73,-0.518,0.054423076923076935,0.06788795562130177,-0.425,0.737,-0.02493269230769231,0.09226238970044383,-0.548,0.934,1.1339920122528506,0.0800678757621145,0.5965215838509115,1.7458608191949323,Jaz
-1.0262788461538461,0.09463020109097675,-1.77,-0.445,0.09419230769230769,0.07307248224852071,-0.526,0.694,-0.011307692307692312,0.11188792455621295,-0.675,1.087,1.1063823862504347,0.11775694808710124,0.4837323640196095,1.9643159114561997,Jaz
-0.9674807692307692,0.0654864996301775,-1.591,-0.557,0.031086538461538457,0.046028405972633114,-0.507,0.799,0.01739423076923077,0.0851711618897929,-0.516,0.851,1.027451459975701,0.07831753585533874,0.5951655231950185,1.6417630766952946,Jaz
-0.9467596153846153,0.07370810567677533,-1.639,-0.475,0.06286538461538461,0.05354278957100591,-0.559,0.676,-0.042798076923076925,0.09672694961168642,-0.602,1.104,1.0173450571761273,0.09112438079314811,0.5157615728221714,1.8812514451821691,Jaz
-0.9997307692307693,0.11031546597633157,-1.863,-0.317,0.04376923076923077,0.056267696745562125,-0.594,0.686,-0.030961538461538467,0.09849671005917159,-0.514,1.039,1.0708686865191102,0.12065610238668167,0.47041045906739787,1.949205479163241,Jaz
-1.0042499999999999,0.09483186057692317,-1.682,-0.536,0.07229807692307692,0.05032193999630177,-0.465,0.62,-0.0030288461538461537,0.10861477801405323,-0.607,0.878,1.077457849011539,0.10660741052650469,0.5881878951491607,1.7253304031402217,Jaz
-1.0048846153846154,0.07912627514792958,-1.873,-0.568,0.10520192307692308,0.049681584227070974,-0.325,0.778,-0.015932692307692307,0.08435860123890533,-0.883,0.672,1.0675427295987139,0.09463336663477384,0.5963430220938282,1.9681791077033612,Jaz
-0.9551153846153847,0.056310140532543795,-1.692,-0.461,0.06964423076923078,0.06063380612056212,-0.318,0.809,0.04283653846153846,0.08514204058801776,-0.587,0.682,1.0267640181224655,0.0667723241659326,0.4862818112987571,1.7862958881439546,Jaz
-1.0255480769230767,0.06366028615014852,-1.497,-0.144,0.030596153846153846,0.05324824075443786,-0.513,0.631,-0.07222115384615385,0.036639460706360934,-0.644,0.37,1.073023555526108,0.060069314670724516,0.4757646476988386,1.630475084139589,Jaz
-1.0245961538461539,0.08657724075443762,-1.642,-0.375,0.0783846153846154,0.040411909763313617,-0.4,0.45,-0.014836538461538465,0.10390475212647932,-0.604,1.151,1.088699073291734,0.10178977973679659,0.4853091798019073,1.970717128357086,Jaz
-0.9704134615384615,0.08614610789570987,-1.694,-0.498,0.05634615384615385,0.041038591715976354,-0.413,0.528,0.010855769230769231,0.07606529650517747,-0.335,0.952,1.0223492401131287,0.10304705047087759,0.5349102728495687,1.8397426450457683,Jaz
-0.955,0.0666826153846155,-1.582,-0.48,0.07771153846153847,0.059568339866863905,-0.655,0.664,-0.02288461538461539,0.09422702514792901,-0.619,0.889,1.021199968512994,0.09621639353982903,0.5454319389254721,1.8738020172899805,Jaz
-1.0268461538461537,0.0865974763313615,-1.752,-0.354,0.04048076923076924,0.0815638650147929,-0.661,0.673,-0.025326923076923073,0.09060720081360947,-0.566,0.899,1.1087319401596742,0.0861751964082269,0.7093905835292713,1.8479031359895466,Jaz
-0.9968269230769231,0.09577754696745555,-1.727,-0.347,0.07543269230769231,0.057512187777366844,-0.495,0.676,-0.027317307692307693,0.123282908931213,-0.686,1.17,1.0766371924820217,0.11752524037981527,0.5648884845701848,2.0445119221956127,Jaz
-1.0048461538461537,0.07219005325443817,-1.645,-0.465,0.04177884615384616,0.035768153014053235,-0.505,0.41,0.0014423076923076876,0.09200093897928992,-0.601,0.965,1.0597808127478874,0.08828711931604283,0.4958447337624955,1.677696635271109,Jaz
-0.9778557692307692,0.08542221958210061,-1.644,-0.437,0.0909423076923077,0.07194726590236686,-0.434,0.807,-0.10647115384615385,0.051491710706360945,-0.865,0.342,1.0434152422081933,0.0959543438660786,0.5221465311576818,1.6674363556070138,Jaz
-1.0675096153846153,0.049670269138313516,-1.618,-0.495,0.03441346153846154,0.07041908866494083,-0.515,0.573,-0.008567307692307699,0.11566349546967461,-0.658,0.975,1.1488655174330122,0.05669534016106903,0.6845414523606296,1.67786352245944,Jaz
-0.9727980769230768,0.0851198726886101,-1.557,-0.255,0.05875,0.052373129807692285,-0.514,0.552,0.017586538461538462,0.07673095404955621,-0.493,0.856,1.0355817199399255,0.09189140517242,0.5342752099807738,1.706296867488187,Jaz
-0.9304230769230769,0.07826009023668645,-1.448,-0.271,0.0915,0.05982419230769234,-0.547,0.699,-0.012269230769230774,0.12642285059171596,-0.78,0.854,1.0212129215345036,0.09584118812173315,0.5347345135672468,1.6575385365052604,Jaz
-1.0080384615384614,0.08657251775147912,-1.618,-0.381,0.05831730769230769,0.05866369739275147,-0.562,0.729,-0.0029519230769230772,0.11754346884245566,-0.591,1.092,1.0876929057879572,0.09925498885239659,0.6050999917369029,1.897768426336575,Jaz
-0.9978461538461538,0.09632720710059162,-1.657,-0.369,0.07955769230769232,0.03959790051775148,-0.469,0.602,-0.013817307692307691,0.1044960916235207,-0.572,1.073,1.0656078709886878,0.10711835567157135,0.5685288031401752,1.831107315260359,Jaz
-0.997875,0.07498003245192286,-1.604,-0.556,0.04005769230769232,0.044104669748520724,-0.506,0.482,0.0024999999999999957,0.09793878846153847,-0.643,0.934,1.0593544095002179,0.09215711007244431,0.5917989523478391,1.711203377743277,Jaz
-1.0149423076923076,0.0845969005177516,-1.647,-0.302,0.020307692307692308,0.06223307840236687,-0.508,0.571,-0.10207692307692308,0.04398041715976329,-0.677,0.371,1.0704689053823964,0.08584670722479859,0.5464576836315873,1.7125002189780882,Jaz
-1.0483365384615384,0.09988070404955707,-1.645,-0.104,0.060951923076923084,0.07188018038091717,-0.673,0.762,0.017884615384615384,0.1363060443786982,-0.825,0.984,1.1458259332173228,0.09819435384357456,0.5892987357868673,1.871754257374616,Jaz
-0.9625384615384617,0.10473015236686378,-1.746,-0.35,0.05525000000000001,0.08876395673076923,-0.527,1.184,0.031375,0.11395521514423075,-0.565,1.174,1.0525958324696891,0.1300085807751339,0.5152601284788103,2.0035588336757173,Jaz
-0.9433557692307691,0.07447270996671629,-1.7,-0.498,0.05554807692307692,0.06724797845784022,-0.639,0.829,-0.05677884615384616,0.1145751914755917,-0.574,1.297,1.0252526829854978,0.1013823494925763,0.5295403667332642,2.08016537804089,Jaz
-1.0003653846153848,0.1035889241863901,-1.752,-0.299,0.05628846153846153,0.086002512943787,-0.685,0.744,-0.025288461538461534,0.10845033986686395,-0.532,1.084,1.0880602023164283,0.1187055730582105,0.49516360932524117,1.985115865636059,Jaz
-1.0143557692307692,0.10402082535133084,-1.613,-0.288,0.05914423076923077,0.05592633496671596,-0.651,0.487,-0.0036250000000000037,0.0937839266826923,-0.589,0.843,1.082341523461494,0.11469672082182192,0.5220900305502875,1.8030632268448048,Jaz
-1.0330961538461538,0.08293360613905376,-1.916,-0.555,0.024288461538461537,0.03803720525147929,-0.526,0.407,0.014057692307692308,0.0765634197485207,-0.488,0.863,1.0822424411187277,0.09436074094906899,0.5691063169566826,1.9174676007693063,Jaz
-1.013548076923077,0.0713464976886089,-1.998,-0.033,-0.03501923076923077,0.12043417270710056,-0.998,0.932,-0.06710576923076923,0.06333740227440825,-1.115,0.335,1.1047787272952045,0.06759127140829668,0.778456164469137,2.302412864800751,Jaz
-1.0258557692307693,0.05431714265902321,-1.765,-0.46,0.06640384615384615,0.044441183062130185,-0.391,0.782,-0.018759615384615385,0.05655785567677517,-0.8,0.525,1.074164943773608,0.058627308183226035,0.5085007374625921,1.9306408262543293,Jaz
-0.9867307692307693,0.07769742751479258,-1.638,-0.49,0.0835,0.06520440384615384,-0.471,0.618,0.0296923076923077,0.08376942455621302,-0.423,0.961,1.0564601574123496,0.09205468580027354,0.5368472780968531,1.7584919675676656,Jaz
-0.9375576923076923,0.07029397744082844,-1.626,-0.327,0.05375,0.05769274519230767,-0.607,0.714,-0.04213461538461539,0.0941234818786982,-0.561,1.025,1.0085802714220413,0.08855485532901075,0.5043857650647964,1.9514276824929997,Jaz
-0.9950673076923077,0.09007150508505879,-1.713,-0.509,0.058875,0.07779724399038457,-0.554,0.683,-0.006682692307692308,0.10177075508505919,-0.561,1.074,1.0741226648797513,0.10956987579162103,0.5545619893213021,2.0183034955130017,Jaz
-1.006423076923077,0.08869943639053268,-1.668,-0.491,0.060567307692307684,0.05583578393121301,-0.692,0.498,0.0037403846153846146,0.10501848067677516,-0.556,0.998,1.077916418450316,0.10421969483524363,0.5461400919178155,1.9691096972997721,Jaz
-1.0211057692307692,0.07818242150517785,-1.66,-0.58,0.09041346153846154,0.04376381943417159,-0.321,0.562,0.015500000000000002,0.11315444230769227,-0.555,1.234,1.0870573463596132,0.10447884495636539,0.6133490034230104,2.019334048640789,Jaz
-0.9902884615384616,0.06484555140532544,-1.792,-0.413,-0.027134615384615375,0.04981386649408284,-0.691,0.412,-0.09585576923076923,0.038040469582100604,-0.527,0.449,1.0376290670481632,0.06662165960137378,0.5192773825230597,1.8262710642180149,Jaz
-1.050230769230769,0.07017086982248544,-1.764,-0.381,0.030528846153846153,0.09910422993713014,-0.846,1.032,-0.032874999999999995,0.09361572475961541,-0.647,0.91,1.1364406434014644,0.0763909332560353,0.6295315718850009,1.8200934041966088,Jaz
-1.0035961538461537,0.07727520229289908,-1.735,-0.531,0.06675961538461538,0.0507601249075444,-0.447,0.689,-0.010307692307692308,0.10409725147928993,-0.512,1.186,1.075599089781488,0.08698751152277318,0.6024665965844082,1.9210434664525424,Jaz
-0.9441923076923077,0.06842682840236691,-1.592,-0.413,0.06167307692307693,0.07320564312130176,-0.714,0.824,-0.02295192307692308,0.09943896884245562,-0.597,1.085,1.024660078894247,0.0869726361819747,0.5404562887042763,1.877075917484426,Jaz
-0.9959326923076923,0.07568940893121301,-1.677,-0.539,0.05978846153846154,0.06974260909763315,-0.635,0.713,-0.004317307692307695,0.09818717816198229,-0.548,0.964,1.0703672800998896,0.0934083087684876,0.5737996165910186,1.7795353326079255,Jaz
-1.011451923076923,0.07003855538091686,-1.904,-0.594,0.034730769230769225,0.10968527366863905,-0.737,0.839,-0.05239423076923077,0.0720809118897929,-0.545,0.705,1.099777388316221,0.06928081153296728,0.6171709649683789,2.0191723551990304,Jaz
-1.0084519230769229,0.06270997845784088,-1.643,-0.604,0.05615384615384615,0.04190030325443789,-0.519,0.642,0.016423076923076926,0.07424089792899406,-0.522,0.773,1.0588394040912568,0.07810854903598008,0.6169894650640316,1.7278920683885322,Jaz
-1.0200384615384617,0.04853911390532506,-1.604,-0.515,-0.013836538461538464,0.06518750212647927,-0.615,0.743,-0.09147115384615387,0.04299351839866865,-0.599,0.446,1.074570783375663,0.05105465074618332,0.6960941028338051,1.6145169556248087,Jaz
-1.0320961538461537,0.0702747599852076,-1.8,-0.387,0.05743269230769232,0.058703745469674606,-0.448,0.638,-0.013240384615384616,0.07758889413831363,-0.532,0.891,1.0983129828197713,0.06897228407722933,0.5758758546770303,1.851996220298519,Jaz
-0.9466538461538462,0.06336172633136061,-1.568,-0.358,0.050125,0.04393139783653845,-0.553,0.538,-0.0019038461538461533,0.07761618306213015,-0.583,1.048,1.003933047697229,0.07569738766443002,0.5585776579849931,1.8623450271096385,Jaz
