dd/mm/yyyy,hh:mm:ss.ms,accX[mg],accY[mg],accZ[mg],gyroX[mdps],gyroY[mdps],gyroZ[mdps],magX[mG],magY[mG],magZ[mG],T[degC],rH[%],Press[hPa],
16/06/2023,19:47:39.882,-963,-138,-175,-8,0,-4,562,9,525,28.100000,48.000000,980.049988
16/06/2023,19:47:39.882,-963,-138,-175,-8,0,-4,562,9,525,28.100000,48.000000,980.049988
16/06/2023,19:47:39.883,-963,-138,-175,-8,0,-4,562,9,525,28.100000,48.000000,980.049988
16/06/2023,19:47:39.883,-963,-138,-175,-8,0,-4,562,9,525,28.100000,48.000000,980.049988
16/06/2023,19:47:39.884,-963,-138,-175,-8,0,-4,562,9,525,28.100000,48.000000,980.049988
16/06/2023,19:47:39.887,-963,-138,-175,-8,0,-4,562,9,525,28.100000,48.000000,980.049988
16/06/2023,19:47:39.888,-963,-138,-175,-8,0,-4,562,9,525,28.100000,48.000000,980.049988
16/06/2023,19:47:39.888,-963,-138,-175,-8,0,-4,562,9,525,28.100000,48.000000,980.049988
16/06/2023,19:47:39.889,-963,-138,-175,-8,0,-4,562,9,525,28.100000,48.000000,980.049988
16/06/2023,19:47:39.889,-963,-138,-175,-8,0,-4,562,9,525,28.100000,48.000000,980.049988
16/06/2023,19:47:39.893,-961,-134,-178,-8,0,-4,562,9,525,28.100000,48.000000,980.049988
16/06/2023,19:47:39.898,-961,-134,-178,-7,2,-3,549,3,525,28.100000,48.000000,980.049988
16/06/2023,19:47:39.907,-962,-135,-179,-7,2,-2,549,3,525,28.100000,48.000000,980.049988
16/06/2023,19:47:39.917,-964,-133,-181,-7,2,-1,564,-3,532,28.100000,48.000000,980.049988
16/06/2023,19:47:39.926,-963,-130,-179,-6,1,-1,550,9,529,28.100000,48.000000,980.049988
16/06/2023,19:47:39.935,-962,-130,-178,-5,0,-2,571,-1,507,28.100000,48.000000,980.049988
16/06/2023,19:47:39.944,-962,-129,-178,-5,2,-2,571,-1,507,28.100000,48.000000,980.049988
16/06/2023,19:47:39.954,-963,-130,-176,-4,0,-2,567,6,508,28.100000,48.000000,980.049988
16/06/2023,19:47:39.963,-964,-131,-178,-4,-1,-3,564,1,516,28.100000,48.000000,980.049988
16/06/2023,19:47:39.973,-961,-131,-180,-4,-2,-4,568,6,547,28.100000,48.000000,980.049988
16/06/2023,19:47:39.982,-961,-131,-182,-2,-2,-4,553,27,531,28.100000,48.000000,980.049988
16/06/2023,19:47:39.992,-963,-133,-182,-1,-2,-3,558,12,529,28.100000,48.000000,980.049988
16/06/2023,19:47:40.001,-962,-134,-185,0,-1,-3,571,-10,520,28.100000,48.000000,980.049988
16/06/2023,19:47:40.010,-961,-134,-187,-1,-1,-3,570,7,522,28.100000,48.000000,980.049988
16/06/2023,19:47:40.020,-960,-135,-186,-3,0,-2,559,10,532,28.100000,48.000000,980.049988
16/06/2023,19:47:40.029,-960,-134,-185,-3,0,-2,573,22,523,28.100000,48.000000,980.049988
16/06/2023,19:47:40.038,-962,-134,-183,-3,1,-2,573,22,523,28.100000,48.000000,980.049988
16/06/2023,19:47:40.050,-962,-133,-181,-3,0,-2,574,3,513,28.100000,48.000000,980.049988
16/06/2023,19:47:40.057,-962,-134,-182,-2,0,-2,564,7,525,28.100000,48.000000,980.049988
16/06/2023,19:47:40.067,-962,-134,-182,-1,0,-2,564,7,525,28.100000,48.000000,980.049988
16/06/2023,19:47:40.076,-958,-131,-181,-1,0,-3,571,12,534,28.100000,48.000000,980.049988
16/06/2023,19:47:40.085,-961,-130,-181,-2,0,-4,568,6,537,28.100000,48.000000,980.049988
16/06/2023,19:47:40.095,-961,-134,-182,-3,0,-4,567,4,516,28.100000,48.000000,980.049988
16/06/2023,19:47:40.104,-959,-135,-184,-4,0,-4,574,27,537,28.100000,48.000000,980.049988
16/06/2023,19:47:40.113,-962,-132,-184,-4,0,-4,576,4,523,28.100000,48.000000,980.049988
16/06/2023,19:47:40.122,-963,-134,-186,-4,0,-4,576,4,523,28.100000,48.000000,980.049988
16/06/2023,19:47:40.132,-962,-135,-186,-4,0,-4,562,4,514,28.100000,48.000000,980.049988
16/06/2023,19:47:40.141,-963,-133,-186,-5,0,-5,565,13,535,28.100000,48.000000,980.049988
16/06/2023,19:47:40.151,-963,-134,-188,-7,0,-4,558,-6,516,28.100000,48.000000,980.049988
16/06/2023,19:47:40.170,-962,-132,-185,-1,-1,-4,558,19,540,28.100000,48.000000,980.049988
16/06/2023,19:47:40.179,-962,-131,-184,0,-1,-2,570,24,534,28.100000,48.000000,980.049988
16/06/2023,19:47:40.188,-962,-132,-183,1,-1,-2,579,22,531,28.100000,48.000000,980.049988
16/06/2023,19:47:40.198,-961,-135,-182,0,-2,-3,562,1,529,28.100000,48.000000,980.049988
16/06/2023,19:47:40.207,-961,-135,-182,-1,-3,-4,561,10,522,28.100000,48.000000,980.049988
16/06/2023,19:47:40.216,-962,-137,-183,-1,-4,-4,561,10,522,28.100000,48.000000,980.049988
16/06/2023,19:47:40.226,-964,-140,-182,-1,-2,-4,570,27,522,28.100000,48.000000,980.049988
16/06/2023,19:47:40.235,-963,-140,-184,-2,-2,-4,571,15,531,28.100000,48.000000,980.049988
16/06/2023,19:47:40.245,-961,-138,-186,-2,-2,-3,561,13,510,28.100000,48.000000,980.049988
16/06/2023,19:47:40.254,-961,-135,-187,-1,-2,-4,576,10,519,28.100000,48.000000,980.049988
16/06/2023,19:47:40.263,-961,-133,-189,1,-4,-3,570,6,534,28.100000,48.000000,980.049988
16/06/2023,19:47:40.273,-960,-131,-190,1,-4,-3,556,24,535,28.100000,48.000000,980.049988
16/06/2023,19:47:40.282,-961,-132,-190,2,-4,-3,574,18,525,28.100000,48.000000,980.049988
16/06/2023,19:47:40.291,-963,-136,-186,1,-3,-4,574,-7,532,28.100000,48.000000,980.049988
16/06/2023,19:47:40.300,-962,-139,-186,0,-2,-5,574,-7,532,28.100000,48.000000,980.049988
16/06/2023,19:47:40.310,-959,-140,-185,-2,-2,-5,561,-3,531,28.100000,48.000000,980.049988
16/06/2023,19:47:40.320,-960,-138,-185,-3,-1,-4,570,4,523,28.100000,48.000000,980.049988
16/06/2023,19:47:40.329,-960,-139,-187,-3,2,-4,559,24,522,28.100000,48.000000,980.049988
16/06/2023,19:47:40.338,-959,-140,-187,-4,0,-4,583,13,517,28.100000,48.000000,980.049988
16/06/2023,19:47:40.348,-960,-141,-185,-4,-1,-5,580,9,520,28.100000,48.000000,980.049988
16/06/2023,19:47:40.357,-961,-142,-186,-4,-2,-4,568,19,507,28.100000,48.000000,980.049988
16/06/2023,19:47:40.366,-960,-142,-186,-6,-3,-5,570,1,523,28.100000,48.000000,980.049988
16/06/2023,19:47:40.376,-959,-141,-186,-6,-2,-5,568,9,513,28.100000,48.000000,980.049988
16/06/2023,19:47:40.385,-959,-141,-188,-8,0,-5,556,12,540,28.100000,48.000000,980.049988
16/06/2023,19:47:40.394,-960,-143,-187,-9,-1,-3,556,12,540,28.100000,48.000000,980.049988
16/06/2023,19:47:40.403,-960,-143,-186,-11,-1,-2,570,9,535,28.100000,48.000000,980.049988
16/06/2023,19:47:40.413,-962,-140,-186,-12,0,-1,561,6,538,28.100000,48.000000,980.049988
16/06/2023,19:47:40.423,-964,-137,-186,-13,1,-2,576,13,528,28.100000,48.000000,980.049988
16/06/2023,19:47:40.432,-964,-137,-183,-13,2,-3,559,16,543,28.100000,48.000000,980.049988
16/06/2023,19:47:40.441,-962,-138,-181,-15,2,-3,582,15,522,28.100000,48.000000,980.049988
16/06/2023,19:47:40.451,-962,-137,-182,-14,3,-2,561,15,523,28.100000,48.000000,980.049988
16/06/2023,19:47:40.460,-961,-135,-181,-14,3,-2,559,7,523,28.100000,48.000000,980.049988
16/06/2023,19:47:40.469,-961,-132,-181,-13,2,-1,561,-12,525,28.100000,48.000000,980.049988
16/06/2023,19:47:40.479,-960,-131,-183,-14,3,-2,573,10,520,28.100000,48.000000,980.049988
16/06/2023,19:47:40.488,-959,-133,-184,-13,4,-1,573,10,520,28.100000,48.000000,980.049988
16/06/2023,19:47:40.497,-961,-133,-182,-11,5,-1,555,1,537,28.100000,48.000000,980.049988
16/06/2023,19:47:40.507,-964,-132,-178,-10,5,0,576,6,525,28.100000,48.000000,980.049988
16/06/2023,19:47:40.516,-966,-131,-175,-9,8,-1,556,19,532,28.100000,48.000000,980.049988
16/06/2023,19:47:40.526,-967,-133,-173,-11,10,-1,564,-10,538,28.100000,48.000000,980.049988
16/06/2023,19:47:40.538,-967,-135,-170,-13,12,0,579,4,534,28.100000,48.000000,980.049988
16/06/2023,19:47:40.544,-969,-133,-165,-14,13,0,576,12,522,28.100000,48.000000,980.049988
16/06/2023,19:47:40.554,-969,-133,-165,-18,13,1,579,1,525,28.100000,48.000000,980.049988
16/06/2023,19:47:40.563,-972,-131,-161,-20,12,2,579,-6,532,28.100000,48.000000,980.049988
16/06/2023,19:47:40.572,-974,-128,-159,-22,10,3,571,15,532,28.100000,48.000000,980.049988
16/06/2023,19:47:40.581,-976,-128,-157,-23,6,4,571,15,532,28.100000,48.000000,980.049988
16/06/2023,19:47:40.591,-975,-127,-154,-20,5,7,562,12,531,28.100000,48.000000,980.049988
16/06/2023,19:47:40.601,-975,-121,-150,-19,4,8,561,0,520,28.100000,48.000000,980.049988
16/06/2023,19:47:40.610,-974,-115,-146,-22,2,8,556,-1,531,28.100000,48.000000,980.049988
16/06/2023,19:47:40.619,-973,-109,-145,-28,4,6,576,13,517,28.100000,48.000000,980.049988
16/06/2023,19:47:40.629,-974,-107,-146,-32,5,6,555,0,546,28.100000,48.000000,980.049988
16/06/2023,19:47:40.638,-976,-106,-144,-36,3,4,565,10,517,28.100000,48.000000,980.049988
16/06/2023,19:47:40.647,-973,-104,-140,-35,3,3,573,9,529,28.100000,48.000000,980.049988
16/06/2023,19:47:40.657,-969,-101,-132,-30,-2,4,586,-3,526,28.100000,48.000000,980.049988
16/06/2023,19:47:40.666,-970,-99,-122,-19,-9,5,586,-3,526,28.100000,48.000000,980.049988
16/06/2023,19:47:40.675,-969,-101,-111,-2,-13,5,571,0,528,28.100000,48.000000,980.049988
16/06/2023,19:47:40.685,-967,-107,-104,22,-21,7,573,18,553,28.100000,48.000000,980.049988
16/06/2023,19:47:40.694,-967,-107,-107,47,-32,6,567,4,525,28.100000,48.000000,980.049988
16/06/2023,19:47:40.704,-966,-106,-122,60,-43,8,559,16,537,28.100000,48.000000,980.049988
16/06/2023,19:47:40.713,-964,-107,-143,53,-50,5,565,3,534,28.100000,48.000000,980.049988
16/06/2023,19:47:40.722,-962,-111,-159,36,-43,2,567,15,520,28.100000,48.000000,980.049988
16/06/2023,19:47:40.732,-956,-118,-168,16,-33,1,571,27,510,28.100000,48.000000,980.049988
16/06/2023,19:47:40.741,-951,-124,-173,-5,-17,0,571,12,541,28.100000,48.000000,980.049988
16/06/2023,19:47:40.750,-950,-128,-175,-16,-5,-1,565,22,531,28.100000,48.000000,980.049988
16/06/2023,19:47:40.759,-948,-132,-166,-22,4,-2,565,22,531,28.100000,48.000000,980.049988
16/06/2023,19:47:40.769,-947,-140,-153,-34,9,-2,570,-3,516,28.100000,48.000000,980.049988
16/06/2023,19:47:40.779,-946,-143,-154,-50,18,-5,570,6,519,28.100000,48.000000,980.049988
16/06/2023,19:47:40.788,-946,-142,-160,-83,31,-9,562,10,523,28.100000,48.000000,980.049988
16/06/2023,19:47:40.797,-951,-143,-162,-117,59,-15,571,7,528,28.100000,48.000000,980.049988
16/06/2023,19:47:40.807,-956,-157,-158,-136,88,-18,571,18,531,28.100000,48.000000,980.049988
16/06/2023,19:47:40.816,-951,-185,-139,-130,105,-16,562,15,519,28.100000,48.000000,980.049988
16/06/2023,19:47:40.825,-948,-203,-122,-130,105,-16,564,12,523,28.100000,48.000000,980.049988
16/06/2023,19:47:40.835,-950,-201,-126,-112,107,-12,564,12,523,24.700001,49.700001,980.049988
16/06/2023,19:47:40.844,-954,-187,-144,-95,100,-4,576,3,535,24.700001,49.700001,980.190002
16/06/2023,19:47:40.853,-961,-159,-173,-87,88,-3,576,3,535,24.700001,49.700001,980.190002
16/06/2023,19:47:40.862,-967,-131,-203,-91,89,-4,564,18,553,24.700001,49.700001,980.190002
16/06/2023,19:47:40.872,-972,-117,-219,-96,99,-10,565,13,538,24.700001,49.700001,980.190002
16/06/2023,19:47:40.882,-972,-111,-218,-90,111,-19,559,1,529,24.700001,49.700001,980.190002
16/06/2023,19:47:40.891,-964,-113,-204,-72,116,-33,550,-3,544,24.700001,49.700001,980.190002
16/06/2023,19:47:40.900,-964,-113,-204,-41,109,-47,547,9,532,24.700001,49.700001,980.190002
16/06/2023,19:47:40.919,-953,-142,-161,0,67,-66,550,1,525,24.700001,49.700001,980.190002
16/06/2023,19:47:40.928,-947,-174,-153,5,38,-71,570,1,538,24.700001,49.700001,980.190002
16/06/2023,19:47:40.938,-946,-214,-163,-7,16,-75,561,7,528,24.700001,49.700001,980.190002
16/06/2023,19:47:40.947,-935,-251,-193,-41,16,-71,561,7,528,24.700001,49.700001,980.190002
16/06/2023,19:47:40.956,-911,-288,-230,-85,25,-61,571,0,514,24.700001,49.700001,980.190002
16/06/2023,19:47:40.966,-897,-317,-274,-126,43,-44,577,4,537,24.700001,49.700001,980.190002
16/06/2023,19:47:40.975,-899,-318,-295,-109,57,-19,555,13,528,24.700001,49.700001,980.190002
16/06/2023,19:47:40.985,-913,-298,-287,-87,74,5,552,16,538,24.700001,49.700001,980.190002
16/06/2023,19:47:40.994,-935,-250,-261,-84,89,23,576,-10,538,24.700001,49.700001,980.190002
16/06/2023,19:47:41.003,-951,-182,-224,-75,101,40,546,24,546,24.700001,49.700001,980.190002
16/06/2023,19:47:41.013,-948,-115,-182,-62,114,49,562,13,529,24.700001,49.700001,980.190002
16/06/2023,19:47:41.022,-945,-64,-142,-38,107,53,555,-3,547,24.700001,49.700001,980.190002
16/06/2023,19:47:41.031,-960,-38,-111,15,103,54,555,-3,547,24.700001,49.700001,980.190002
16/06/2023,19:47:41.040,-970,-42,-95,78,94,52,549,1,541,24.700001,49.700001,980.190002
16/06/2023,19:47:41.050,-970,-61,-101,135,74,48,546,6,556,24.700001,49.700001,980.190002
16/06/2023,19:47:41.060,-962,-93,-123,184,62,40,559,6,552,24.700001,49.700001,980.190002
16/06/2023,19:47:41.069,-939,-136,-150,210,63,30,555,7,549,24.700001,49.700001,980.190002
16/06/2023,19:47:41.078,-921,-175,-176,236,64,21,550,6,571,24.700001,49.700001,980.190002
16/06/2023,19:47:41.088,-918,-211,-192,268,68,23,552,-12,535,24.700001,49.700001,980.190002
16/06/2023,19:47:41.097,-913,-236,-182,282,84,29,582,3,549,24.700001,49.700001,980.190002
16/06/2023,19:47:41.106,-910,-247,-160,266,115,29,553,1,538,24.700001,49.700001,980.190002
16/06/2023,19:47:41.116,-908,-259,-155,247,139,29,556,12,544,24.700001,49.700001,980.190002
16/06/2023,19:47:41.125,-901,-269,-161,247,162,33,556,12,544,24.700001,49.700001,980.190002
16/06/2023,19:47:41.134,-900,-267,-164,259,188,38,561,13,544,24.700001,49.700001,980.190002
16/06/2023,19:47:41.144,-902,-250,-159,284,211,46,540,0,535,24.700001,49.700001,980.190002
16/06/2023,19:47:41.153,-909,-227,-138,298,233,48,564,3,550,24.700001,49.700001,980.190002
16/06/2023,19:47:41.163,-923,-210,-112,301,230,41,562,-1,550,24.700001,49.700001,980.190002
16/06/2023,19:47:41.172,-931,-193,-93,301,230,41,559,4,550,24.700001,49.700001,980.190002
16/06/2023,19:47:41.181,-933,-188,-87,303,213,32,547,15,541,24.700001,49.700001,980.190002
16/06/2023,19:47:41.191,-928,-189,-94,307,200,21,538,6,538,24.700001,49.700001,980.190002
16/06/2023,19:47:41.200,-926,-185,-111,309,195,11,549,19,559,24.700001,49.700001,980.190002
16/06/2023,19:47:41.210,-930,-183,-131,307,197,3,537,15,550,24.700001,49.700001,980.190002
16/06/2023,19:47:41.218,-935,-182,-151,324,210,0,537,15,550,24.700001,49.700001,980.190002
16/06/2023,19:47:41.228,-940,-177,-160,361,206,1,543,21,556,24.700001,49.700001,980.190002
16/06/2023,19:47:41.238,-941,-178,-160,410,204,4,546,18,568,24.700001,49.700001,980.190002
16/06/2023,19:47:41.247,-941,-178,-160,437,197,3,540,18,565,24.700001,49.700001,980.190002
16/06/2023,19:47:41.256,-943,-190,-166,457,180,4,537,36,558,24.700001,49.700001,980.190002
16/06/2023,19:47:41.266,-945,-197,-176,471,154,10,537,37,567,24.700001,49.700001,980.190002
16/06/2023,19:47:41.275,-952,-205,-189,474,125,16,543,31,568,24.700001,49.700001,980.190002
16/06/2023,19:47:41.285,-956,-219,-210,461,105,23,534,43,585,24.700001,49.700001,980.190002
16/06/2023,19:47:41.293,-950,-226,-234,446,91,28,543,31,555,24.700001,49.700001,980.190002
16/06/2023,19:47:41.303,-936,-226,-258,433,77,33,543,31,555,24.700001,49.700001,980.190002
16/06/2023,19:47:41.312,-923,-220,-286,429,73,37,555,39,583,24.700001,49.700001,980.190002
16/06/2023,19:47:41.322,-915,-218,-310,427,85,41,547,43,561,24.700001,49.700001,980.190002
16/06/2023,19:47:41.331,-922,-216,-335,429,106,46,541,39,561,24.700001,49.700001,980.190002
16/06/2023,19:47:41.341,-942,-207,-358,430,135,45,537,54,574,24.700001,49.700001,980.190002
16/06/2023,19:47:41.350,-962,-195,-371,412,171,36,523,27,565,24.700001,49.700001,980.190002
16/06/2023,19:47:41.359,-991,-182,-384,372,228,9,540,45,550,24.700001,49.700001,980.190002
16/06/2023,19:47:41.369,-1049,-183,-390,317,292,-25,526,42,568,24.700001,49.700001,980.190002
16/06/2023,19:47:41.378,-1106,-202,-381,238,330,-69,534,55,579,24.700001,49.700001,980.190002
16/06/2023,19:47:41.388,-1106,-230,-339,112,351,-118,528,54,583,24.700001,49.700001,980.190002
16/06/2023,19:47:41.396,-1071,-265,-223,-74,332,-161,528,54,583,24.700001,49.700001,980.190002
16/06/2023,19:47:41.406,-1048,-312,25,-153,151,-205,529,61,579,24.700001,49.700001,980.190002
16/06/2023,19:47:41.416,-1042,-399,223,17,-32,-212,531,61,580,24.700001,49.700001,980.190002
16/06/2023,19:47:41.425,-1058,-509,178,288,-144,-176,522,60,574,24.700001,49.700001,980.190002
16/06/2023,19:47:41.434,-1086,-577,23,357,-142,-130,523,58,564,24.700001,49.700001,980.190002
16/06/2023,19:47:41.444,-1101,-597,-75,20,-58,-105,540,52,582,24.700001,49.700001,980.190002
16/06/2023,19:47:41.453,-1078,-592,-132,-469,-31,-98,552,55,579,24.700001,49.700001,980.190002
16/06/2023,19:47:41.463,-1017,-596,-154,-704,29,-86,528,48,577,24.700001,49.700001,980.190002
16/06/2023,19:47:41.472,-969,-615,-55,-639,75,-37,544,66,583,24.700001,49.700001,980.190002
16/06/2023,19:47:41.481,-1024,-559,113,-395,82,70,532,57,580,24.700001,49.700001,980.190002
16/06/2023,19:47:41.490,-1155,-424,270,-164,3,158,532,57,580,24.700001,49.700001,980.190002
16/06/2023,19:47:41.499,-1259,-296,337,-37,-174,205,522,55,585,24.700001,49.700001,980.190002
16/06/2023,19:47:41.509,-1282,-217,298,-1,-396,219,528,37,577,24.700001,49.700001,980.190002
16/06/2023,19:47:41.519,-1243,-178,243,-1,-396,219,525,34,570,24.700001,49.700001,980.190002
16/06/2023,19:47:41.528,-1220,-152,226,4,-611,218,544,45,570,24.700001,49.700001,980.190002
16/06/2023,19:47:41.537,-1222,-141,209,46,-811,222,531,43,561,24.700001,49.700001,980.190002
16/06/2023,19:47:41.547,-1229,-143,145,98,-1018,230,544,55,580,24.700001,49.700001,980.190002
16/06/2023,19:47:41.556,-1225,-129,58,100,-1141,243,555,31,552,24.700001,49.700001,980.190002
16/06/2023,19:47:41.566,-1201,-108,47,-31,-1099,205,580,48,543,24.700001,49.700001,980.190002
16/06/2023,19:47:41.575,-1156,-126,147,-292,-1009,117,562,45,543,24.700001,49.700001,980.190002
16/06/2023,19:47:41.587,-1156,-126,147,-652,-934,-42,562,45,543,24.700001,49.700001,980.190002
16/06/2023,19:47:41.594,-1109,-148,184,-1106,-910,-196,541,33,534,24.700001,49.700001,980.190002
16/06/2023,19:47:41.603,-1089,-177,30,-1424,-882,-240,577,30,531,24.700001,49.700001,980.190002
16/06/2023,19:47:41.612,-1132,-213,-219,-1342,-867,-137,573,28,529,24.700001,49.700001,980.190002
16/06/2023,19:47:41.622,-1206,-200,-448,-870,-978,-11,579,42,516,24.700001,49.700001,980.190002
16/06/2023,19:47:41.631,-1259,-157,-536,-278,-1164,96,591,13,510,24.700001,49.700001,980.190002
16/06/2023,19:47:41.650,-1246,0,-487,618,-1351,202,586,12,513,24.700001,49.700001,980.190002
16/06/2023,19:47:41.659,-1183,61,-395,925,-1264,260,592,-4,495,24.700001,49.700001,980.190002
16/06/2023,19:47:41.668,-1161,94,-283,1100,-1134,314,592,-4,495,24.700001,49.700001,980.190002
16/06/2023,19:47:41.677,-1185,94,-188,1145,-1050,327,594,6,487,24.700001,49.700001,980.190002
16/06/2023,19:47:41.687,-1215,101,-126,1128,-1086,326,607,25,457,24.700001,49.700001,980.190002
16/06/2023,19:47:41.697,-1210,96,-88,1086,-1124,302,621,28,474,24.700001,49.700001,980.190002
16/06/2023,19:47:41.706,-1142,76,-88,1016,-1087,290,621,28,459,24.700001,49.700001,980.190002
16/06/2023,19:47:41.715,-1025,76,-133,904,-905,311,619,13,447,24.700001,49.700001,980.190002
16/06/2023,19:47:41.725,-899,64,-188,740,-667,343,591,30,438,24.700001,49.700001,980.190002
16/06/2023,19:47:41.734,-805,50,-244,646,-509,346,609,9,412,24.700001,49.700001,980.190002
16/06/2023,19:47:41.747,-760,17,-318,640,-447,356,627,7,424,24.700001,49.700001,980.190002
16/06/2023,19:47:41.753,-775,-54,-362,671,-394,371,628,0,411,24.700001,49.700001,980.190002
16/06/2023,19:47:41.762,-773,-134,-365,699,-303,404,628,0,411,24.700001,49.700001,980.190002
16/06/2023,19:47:41.771,-729,-185,-323,703,-150,448,645,-3,429,24.700001,49.700001,980.190002
16/06/2023,19:47:41.781,-683,-190,-254,659,-52,455,625,24,411,24.700001,49.700001,980.190002
16/06/2023,19:47:41.790,-651,-149,-214,618,-8,427,619,-6,409,24.700001,49.700001,980.190002
16/06/2023,19:47:41.800,-643,-79,-135,456,10,392,630,16,411,24.700001,49.700001,980.190002
16/06/2023,19:47:41.809,-582,7,-101,161,74,286,619,6,418,24.700001,49.700001,980.190002
16/06/2023,19:47:41.819,-517,94,-136,-48,82,169,619,1,423,24.700001,49.700001,980.190002
16/06/2023,19:47:41.828,-511,158,-133,-171,89,59,616,6,409,24.700001,49.700001,980.190002
16/06/2023,19:47:41.837,-490,211,-136,-242,123,-63,613,1,424,24.700001,49.700001,980.190002
16/06/2023,19:47:41.847,-470,232,-145,-242,123,-63,622,0,414,24.700001,49.700001,980.190002
16/06/2023,19:47:41.855,-472,196,-119,-305,257,-271,622,0,414,24.700001,49.700001,980.190002
16/06/2023,19:47:41.865,-481,132,-61,-305,257,-271,625,9,411,24.700001,49.700001,980.190002
16/06/2023,19:47:41.875,-502,67,17,-436,281,-376,628,-1,441,24.700001,49.700001,980.190002
16/06/2023,19:47:41.884,-540,20,56,-686,238,-484,618,13,439,24.700001,49.299999,980.219971
16/06/2023,19:47:41.893,-594,-18,45,-988,126,-610,624,3,426,24.700001,49.299999,980.219971
16/06/2023,19:47:41.903,-695,-82,54,-1237,-24,-728,612,9,462,24.700001,49.299999,980.219971
16/06/2023,19:47:41.912,-903,-172,140,-1400,-198,-767,633,15,426,24.700001,49.299999,980.219971
16/06/2023,19:47:41.921,-903,-172,140,-1455,-488,-748,628,19,432,24.700001,49.299999,980.219971
16/06/2023,19:47:41.931,-1578,-335,854,-1311,-944,-655,622,15,417,24.700001,49.299999,980.219971
16/06/2023,19:47:41.940,-1578,-335,854,-499,-1550,-263,622,15,417,24.700001,49.299999,980.219971
16/06/2023,19:47:41.952,-1847,-846,1105,1334,-1840,625,604,15,387,24.700001,49.299999,980.219971
16/06/2023,19:47:41.959,-1815,-1870,1198,2176,-497,1571,613,13,397,24.700001,49.299999,980.219971
16/06/2023,19:47:41.968,-1713,-2196,1304,465,851,1524,636,4,384,24.700001,49.299999,980.219971
16/06/2023,19:47:41.978,-1421,-1485,925,-1316,850,797,615,-21,402,24.700001,49.299999,980.219971
16/06/2023,19:47:41.987,-979,-815,364,-1900,328,465,622,-25,414,24.700001,49.299999,980.219971
16/06/2023,19:47:41.997,-802,-511,36,-1594,-160,436,616,-33,412,24.700001,49.299999,980.219971
16/06/2023,19:47:42.006,-746,-391,-171,-1044,-384,419,636,-19,420,24.700001,49.299999,980.219971
16/06/2023,19:47:42.015,-748,-252,-429,-556,-521,355,624,-37,414,24.700001,49.299999,980.219971
16/06/2023,19:47:42.025,-853,-82,-674,-109,-528,218,628,-33,390,24.700001,49.299999,980.219971
16/06/2023,19:47:42.033,-1059,89,-749,195,-495,78,628,-33,390,24.700001,49.299999,980.219971
16/06/2023,19:47:42.043,-1218,282,-769,175,-353,-156,613,-46,378,24.700001,49.299999,980.219971
16/06/2023,19:47:42.053,-1173,399,-753,12,208,-354,631,-48,387,24.700001,49.299999,980.219971
16/06/2023,19:47:42.062,-1080,492,-536,134,671,-372,619,-39,400,24.700001,49.299999,980.219971
16/06/2023,19:47:42.071,-1123,813,527,-6,80,-429,610,-27,400,24.700001,49.299999,980.219971
16/06/2023,19:47:42.081,-1073,1076,1059,-858,-263,-553,627,-30,402,24.700001,49.299999,980.219971
16/06/2023,19:47:42.090,-976,1018,386,-1085,-15,-491,621,-36,403,24.700001,49.299999,980.219971
16/06/2023,19:47:42.100,-1043,776,-100,-511,237,-504,610,-21,414,24.700001,49.299999,980.219971
16/06/2023,19:47:42.109,-1085,420,-365,333,257,-580,615,-24,402,24.700001,49.299999,980.219971
16/06/2023,19:47:42.118,-1084,130,-482,1007,356,-500,622,-30,403,24.700001,49.299999,980.219971
16/06/2023,19:47:42.127,-1121,-43,-508,1221,603,-374,622,-30,403,24.700001,49.299999,980.219971
16/06/2023,19:47:42.136,-1131,-140,-425,1057,581,-313,624,-15,399,24.700001,49.299999,980.219971
16/06/2023,19:47:42.146,-1052,-204,-310,711,270,-269,636,1,417,24.700001,49.299999,980.219971
16/06/2023,19:47:42.156,-945,-274,-259,276,95,-257,609,4,426,24.700001,49.299999,980.219971
16/06/2023,19:47:42.165,-879,-352,-239,-182,130,-245,612,1,421,24.700001,49.299999,980.219971
16/06/2023,19:47:42.175,-868,-403,-250,-573,278,-264,627,4,421,24.700001,49.299999,980.219971
16/06/2023,19:47:42.184,-864,-426,-288,-826,440,-335,606,-4,450,24.700001,49.299999,980.219971
16/06/2023,19:47:42.193,-845,-431,-315,-968,499,-362,615,-1,424,24.700001,49.299999,980.219971
16/06/2023,19:47:42.203,-839,-406,-340,-968,499,-362,610,15,433,24.700001,49.299999,980.219971
16/06/2023,19:47:42.212,-857,-373,-359,-1049,528,-311,621,0,453,24.700001,49.299999,980.219971
16/06/2023,19:47:42.221,-882,-356,-348,-1055,606,-270,621,0,453,24.700001,49.299999,980.219971
16/06/2023,19:47:42.230,-923,-294,-202,-989,691,-244,613,10,457,24.700001,49.299999,980.219971
16/06/2023,19:47:42.240,-996,-221,33,-539,922,-135,615,-4,450,24.700001,49.299999,980.219971
16/06/2023,19:47:42.250,-1043,-214,146,-32,882,-42,610,18,465,24.700001,49.299999,980.219971
16/06/2023,19:47:42.259,-1021,-232,118,119,738,-31,582,-1,451,24.700001,49.299999,980.219971
16/06/2023,19:47:42.268,-968,-251,10,63,646,-41,594,-4,471,24.700001,49.299999,980.219971
16/06/2023,19:47:42.278,-933,-312,-90,57,639,-36,579,-3,468,24.700001,49.299999,980.219971
16/06/2023,19:47:42.287,-933,-312,-90,90,708,-3,574,12,496,24.700001,49.299999,980.219971
16/06/2023,19:47:42.296,-917,-338,-129,115,780,16,592,-4,483,24.700001,49.299999,980.219971
16/06/2023,19:47:42.306,-908,-288,-119,303,744,69,586,-3,490,24.700001,49.299999,980.219971
16/06/2023,19:47:42.314,-884,-264,-54,397,762,78,586,-3,490,24.700001,49.299999,980.219971
16/06/2023,19:47:42.324,-874,-222,50,339,774,54,580,-9,493,24.700001,49.299999,980.219971
16/06/2023,19:47:42.334,-900,-163,120,233,694,42,595,-10,492,24.700001,49.299999,980.219971
16/06/2023,19:47:42.343,-917,-119,126,226,620,42,567,9,496,24.700001,49.299999,980.219971
16/06/2023,19:47:42.361,-924,-91,111,295,565,36,570,-3,526,24.700001,49.299999,980.219971
16/06/2023,19:47:42.371,-956,-81,100,296,449,-4,550,19,528,24.700001,49.299999,980.219971
16/06/2023,19:47:42.381,-953,-67,78,239,405,-27,573,10,523,24.700001,49.299999,980.219971
16/06/2023,19:47:42.390,-943,-53,47,208,385,-46,576,12,513,24.700001,49.299999,980.219971
16/06/2023,19:47:42.399,-943,-50,26,198,378,-66,550,6,535,24.700001,49.299999,980.219971
16/06/2023,19:47:42.408,-943,-62,17,179,373,-93,550,6,535,24.700001,49.299999,980.219971
16/06/2023,19:47:42.418,-938,-99,9,133,375,-117,565,-3,519,24.700001,49.299999,980.219971
16/06/2023,19:47:42.428,-941,-146,-17,80,402,-131,559,12,534,24.700001,49.299999,980.219971
16/06/2023,19:47:42.437,-952,-175,-56,51,443,-135,544,7,516,24.700001,49.299999,980.219971
16/06/2023,19:47:42.446,-953,-187,-95,40,478,-137,556,18,525,24.700001,49.299999,980.219971
16/06/2023,19:47:42.456,-945,-198,-133,45,507,-139,564,24,550,24.700001,49.299999,980.219971
16/06/2023,19:47:42.465,-937,-202,-173,71,523,-141,541,24,541,24.700001,49.299999,980.219971
16/06/2023,19:47:42.474,-922,-201,-223,120,545,-132,543,9,559,24.700001,49.299999,980.219971
16/06/2023,19:47:42.484,-914,-204,-259,186,553,-120,541,15,535,24.700001,49.299999,980.219971
16/06/2023,19:47:42.492,-933,-220,-285,244,501,-107,541,15,535,24.700001,49.299999,980.219971
16/06/2023,19:47:42.502,-957,-228,-327,295,444,-89,538,9,553,24.700001,49.299999,980.219971
16/06/2023,19:47:42.512,-962,-209,-356,364,411,-72,520,13,547,24.700001,49.299999,980.219971
16/06/2023,19:47:42.521,-970,-187,-353,455,388,-61,538,48,565,24.700001,49.299999,980.219971
16/06/2023,19:47:42.531,-990,-177,-307,543,357,-61,538,48,547,24.700001,49.299999,980.219971
16/06/2023,19:47:42.540,-1016,-183,-209,599,295,-75,535,21,552,24.700001,49.299999,980.219971
16/06/2023,19:47:42.549,-1041,-222,-102,599,295,-75,522,30,562,24.700001,49.299999,980.219971
16/06/2023,19:47:42.559,-1065,-298,-21,657,192,-83,528,36,544,24.700001,49.299999,980.219971
16/06/2023,19:47:42.571,-1076,-372,31,740,83,-75,532,27,565,24.700001,49.299999,980.219971
16/06/2023,19:47:42.577,-1086,-425,49,763,-23,-64,514,33,561,24.700001,49.299999,980.219971
16/06/2023,19:47:42.586,-1118,-479,56,670,-104,-57,514,33,561,24.700001,49.299999,980.219971
16/06/2023,19:47:42.596,-1169,-559,57,511,-168,-53,517,52,561,24.700001,49.299999,980.219971
16/06/2023,19:47:42.606,-1229,-640,51,341,-209,-28,532,34,577,24.700001,49.299999,980.219971
16/06/2023,19:47:42.615,-1239,-677,55,165,-265,19,534,63,564,24.700001,49.299999,980.219971
16/06/2023,19:47:42.624,-1186,-692,71,-4,-349,55,534,34,547,24.700001,49.299999,980.219971
16/06/2023,19:47:42.634,-1186,-692,71,-106,-412,97,519,43,553,24.700001,49.299999,980.219971
16/06/2023,19:47:42.643,-1119,-697,118,-117,-433,172,529,40,552,24.700001,49.299999,980.219971
16/06/2023,19:47:42.652,-1081,-645,208,-51,-467,286,523,54,549,24.700001,49.299999,980.219971
16/06/2023,19:47:42.662,-1067,-544,349,6,-570,405,541,46,538,24.700001,49.299999,980.219971
16/06/2023,19:47:42.674,-1080,-432,452,-86,-707,500,537,43,525,24.700001,49.299999,980.219971
16/06/2023,19:47:42.680,-1121,-321,382,-403,-762,529,537,43,525,24.700001,49.299999,980.219971
16/06/2023,19:47:42.689,-1139,-201,215,-833,-710,486,537,43,534,24.700001,49.299999,980.219971
16/06/2023,19:47:42.699,-1159,-79,132,-1255,-638,424,541,34,532,24.700001,49.299999,980.219971
16/06/2023,19:47:42.709,-1260,2,143,-1555,-664,346,552,10,532,24.700001,49.299999,980.219971
16/06/2023,19:47:42.718,-1385,35,181,-1506,-811,254,564,-6,529,24.700001,49.299999,980.219971
16/06/2023,19:47:42.727,-1402,58,171,-1238,-896,173,558,-12,526,24.700001,49.299999,980.219971
16/06/2023,19:47:42.737,-1283,81,-7,-1062,-876,49,549,-12,502,24.700001,49.299999,980.219971
16/06/2023,19:47:42.746,-1146,59,-316,-1015,-928,-14,577,-9,498,24.700001,49.299999,980.219971
16/06/2023,19:47:42.755,-1112,25,-569,-927,-979,-40,582,-19,489,24.700001,49.299999,980.219971
16/06/2023,19:47:42.764,-1117,4,-705,-693,-1012,-70,582,-19,489,24.700001,49.299999,980.219971
16/06/2023,19:47:42.774,-1088,-40,-768,-328,-1003,-31,580,-16,499,24.700001,49.299999,980.219971
16/06/2023,19:47:42.784,-1039,-75,-757,130,-985,51,565,-15,495,24.700001,49.299999,980.219971
16/06/2023,19:47:42.793,-1025,-47,-672,613,-981,131,576,-16,477,24.700001,49.299999,980.219971
16/06/2023,19:47:42.802,-1069,-21,-544,1007,-1015,190,583,-16,477,24.700001,49.299999,980.219971
16/06/2023,19:47:42.812,-1115,-60,-418,1266,-1005,243,588,-22,469,24.700001,49.299999,980.219971
16/06/2023,19:47:42.824,-1115,-127,-300,1430,-922,293,588,-15,441,24.700001,49.299999,980.219971
16/06/2023,19:47:42.830,-1087,-190,-159,1499,-847,321,607,-19,463,24.700001,49.299999,980.219971
16/06/2023,19:47:42.840,-1054,-215,-47,1487,-828,354,612,-13,438,24.700001,49.299999,980.219971
16/06/2023,19:47:42.849,-962,-219,-33,1388,-730,362,606,4,439,24.700001,49.299999,980.219971
16/06/2023,19:47:42.858,-821,-252,-53,1184,-395,372,606,4,439,24.700001,49.299999,980.219971
16/06/2023,19:47:42.867,-739,-315,-12,677,-101,412,604,-4,435,24.700001,49.299999,980.219971
16/06/2023,19:47:42.877,-725,-357,-37,292,1,458,609,-3,441,24.700001,49.299999,980.219971
16/06/2023,19:47:42.887,-752,-357,-115,227,-14,506,600,-9,439,24.700001,49.299999,980.219971
16/06/2023,19:47:42.896,-809,-334,-120,319,-77,540,580,-28,439,24.700001,49.299999,980.219971
16/06/2023,19:47:42.905,-852,-250,-103,319,-77,540,592,-15,436,24.700001,49.299999,980.219971
16/06/2023,19:47:42.915,-849,-122,-85,367,-125,515,604,-27,438,24.700001,49.299999,980.219971
16/06/2023,19:47:42.925,-799,-20,-71,384,-110,466,604,-27,438,24.700001,48.799999,980.219971
16/06/2023,19:47:42.933,-739,28,-88,332,-46,405,600,-19,426,24.700001,48.799999,980.239990
16/06/2023,19:47:42.942,-717,41,-132,114,108,349,600,-19,426,24.700001,48.799999,980.239990
16/06/2023,19:47:42.952,-719,53,-186,-174,267,289,597,-33,420,24.700001,48.799999,980.239990
16/06/2023,19:47:42.962,-707,76,-234,-427,344,199,610,-48,414,24.700001,48.799999,980.239990
16/06/2023,19:47:42.971,-687,80,-228,-539,342,115,625,-19,438,24.700001,48.799999,980.239990
16/06/2023,19:47:42.980,-687,80,-228,-509,300,65,610,-40,456,24.700001,48.799999,980.239990
16/06/2023,19:47:42.990,-677,70,-166,-488,288,10,604,-43,441,24.700001,48.799999,980.239990
16/06/2023,19:47:42.999,-679,82,-104,-512,318,-61,586,-28,436,24.700001,48.799999,980.239990
16/06/2023,19:47:43.008,-677,120,-82,-512,349,-140,606,-28,448,24.700001,48.799999,980.239990
16/06/2023,19:47:43.018,-693,137,-80,-472,384,-189,591,-42,448,24.700001,48.799999,980.239990
16/06/2023,19:47:43.027,-690,142,-83,-611,405,-296,601,-18,441,24.700001,48.799999,980.239990
16/06/2023,19:47:43.036,-638,115,-121,-696,414,-355,601,-18,441,24.700001,48.799999,980.239990
16/06/2023,19:47:43.045,-638,80,-135,-679,371,-389,603,-21,454,24.700001,48.799999,980.239990
16/06/2023,19:47:43.055,-720,91,-110,-616,255,-441,595,-33,454,24.700001,48.799999,980.239990
16/06/2023,19:47:43.065,-795,80,-72,-576,146,-499,582,-22,447,24.700001,48.799999,980.239990
16/06/2023,19:47:43.074,-857,31,19,-636,31,-544,591,-27,457,24.700001,48.799999,980.239990
16/06/2023,19:47:43.092,-1111,-104,294,-794,-456,-553,588,-19,474,24.700001,48.799999,980.239990
16/06/2023,19:47:43.102,-1327,-193,543,-734,-786,-454,594,-16,456,24.700001,48.799999,980.239990
16/06/2023,19:47:43.111,-1514,-336,907,-348,-1093,-187,589,-18,435,24.700001,48.799999,980.239990
16/06/2023,19:47:43.121,-1616,-591,1307,197,-1215,115,615,-19,436,24.700001,48.799999,980.239990
16/06/2023,19:47:43.130,-1515,-1070,1425,436,-914,490,598,-48,432,24.700001,48.799999,980.239990
16/06/2023,19:47:43.139,-1317,-1534,1132,310,-308,903,598,-48,432,24.700001,48.799999,980.239990
16/06/2023,19:47:43.148,-1191,-1473,785,-106,174,947,595,-31,427,24.700001,48.799999,980.239990
16/06/2023,19:47:43.158,-1046,-1016,535,-740,254,656,633,-40,412,24.700001,48.799999,980.239990
16/06/2023,19:47:43.168,-919,-592,224,-1186,91,308,607,-36,426,24.700001,48.799999,980.239990
16/06/2023,19:47:43.177,-876,-309,-88,-1212,-95,93,598,-46,438,24.700001,48.799999,980.239990
16/06/2023,19:47:43.186,-827,-150,-305,-926,-240,24,613,-42,426,24.700001,48.799999,980.239990
16/06/2023,19:47:43.196,-796,-54,-418,-527,-263,68,592,-48,423,24.700001,48.799999,980.239990
16/06/2023,19:47:43.205,-892,81,-472,-125,-206,70,621,-55,427,24.700001,48.799999,980.239990
16/06/2023,19:47:43.214,-1069,186,-413,87,-113,-33,586,-66,438,24.700001,48.799999,980.239990
16/06/2023,19:47:43.224,-1221,205,-289,88,-3,-134,600,-64,423,24.700001,48.799999,980.239990
16/06/2023,19:47:43.233,-1361,219,-252,177,92,-194,600,-64,423,24.700001,48.799999,980.239990
16/06/2023,19:47:43.243,-1398,202,-267,300,207,-218,597,-51,423,24.700001,48.799999,980.239990
16/06/2023,19:47:43.252,-1239,172,-264,300,207,-218,604,-34,405,24.700001,48.799999,980.239990
16/06/2023,19:47:43.261,-1051,226,-248,313,239,-189,594,-63,418,24.700001,48.799999,980.239990
16/06/2023,19:47:43.271,-969,340,-212,279,198,-145,604,-60,430,24.700001,48.799999,980.239990
16/06/2023,19:47:43.280,-925,411,-126,280,105,-184,603,-63,432,24.700001,48.799999,980.239990
16/06/2023,19:47:43.289,-876,332,-173,327,-51,-267,600,-42,421,24.700001,48.799999,980.239990
16/06/2023,19:47:43.299,-892,169,-307,542,-127,-306,615,-40,424,24.700001,48.799999,980.239990
16/06/2023,19:47:43.308,-997,64,-244,855,115,-293,609,-34,441,24.700001,48.799999,980.239990
16/06/2023,19:47:43.317,-997,64,-244,1047,384,-265,609,-34,441,24.700001,48.799999,980.239990
16/06/2023,19:47:43.326,-1085,-15,-98,1152,392,-281,609,-36,438,24.700001,48.799999,980.239990
16/06/2023,19:47:43.336,-1079,-109,-49,1153,421,-325,597,-19,450,24.700001,48.799999,980.239990
16/06/2023,19:47:43.346,-1017,-194,-48,930,443,-338,604,-13,441,24.700001,48.799999,980.239990
16/06/2023,19:47:43.355,-958,-251,-54,531,395,-350,609,-13,429,24.700001,48.799999,980.239990
16/06/2023,19:47:43.364,-909,-276,-84,76,362,-388,604,-28,433,24.700001,48.799999,980.239990
16/06/2023,19:47:43.374,-856,-302,-104,-312,350,-415,597,-19,439,24.700001,48.799999,980.239990
16/06/2023,19:47:43.383,-816,-319,-123,-546,285,-407,598,-6,445,24.700001,48.799999,980.239990
16/06/2023,19:47:43.392,-805,-296,-162,-559,257,-362,598,-6,445,24.700001,48.799999,980.239990
16/06/2023,19:47:43.401,-840,-263,-200,-375,350,-289,592,-15,442,24.700001,48.799999,980.239990
16/06/2023,19:47:43.411,-900,-277,-219,-84,479,-207,589,-12,442,24.700001,48.799999,980.239990
16/06/2023,19:47:43.421,-962,-323,-202,123,482,-138,585,-16,456,24.700001,48.799999,980.239990
16/06/2023,19:47:43.430,-1008,-361,-198,191,406,-110,595,7,460,24.700001,48.799999,980.239990
16/06/2023,19:47:43.439,-1014,-431,-198,118,397,-90,576,-21,448,24.700001,48.799999,980.239990
16/06/2023,19:47:43.449,-991,-508,-173,-78,408,-80,588,-9,460,24.700001,48.799999,980.239990
16/06/2023,19:47:43.458,-948,-478,-189,-229,471,-72,573,-1,459,24.700001,48.799999,980.239990
16/06/2023,19:47:43.467,-916,-374,-194,-258,626,-39,594,10,463,24.700001,48.799999,980.239990
16/06/2023,19:47:43.477,-917,-296,-110,-341,762,-31,588,0,472,24.700001,48.799999,980.239990
16/06/2023,19:47:43.486,-935,-170,-36,-186,671,-10,588,0,472,24.700001,48.799999,980.239990
16/06/2023,19:47:43.495,-980,-115,11,35,646,-10,564,-373,486,24.700001,48.799999,980.239990
16/06/2023,19:47:43.505,-984,-156,41,-68,700,-41,565,-12,483,24.700001,48.799999,980.239990
16/06/2023,19:47:43.514,-940,-137,30,-221,694,-56,567,3,502,24.700001,48.799999,980.239990
16/06/2023,19:47:43.524,-932,-107,23,-227,644,-50,570,1,504,24.700001,48.799999,980.239990
16/06/2023,19:47:43.533,-925,-97,0,-76,578,-45,562,13,493,24.700001,48.799999,980.239990
16/06/2023,19:47:43.542,-909,-108,-16,111,538,-32,565,-4,516,24.700001,48.799999,980.239990
16/06/2023,19:47:43.552,-899,-120,-8,236,505,-25,556,-6,504,24.700001,48.799999,980.239990
16/06/2023,19:47:43.561,-889,-131,-19,257,493,-32,556,7,508,24.700001,48.799999,980.239990
16/06/2023,19:47:43.571,-895,-132,-50,220,489,-40,558,7,505,24.700001,48.799999,980.239990
16/06/2023,19:47:43.579,-905,-117,-91,197,502,-47,558,7,505,24.700001,48.799999,980.239990
16/06/2023,19:47:43.592,-906,-95,-130,224,525,-50,541,0,507,24.700001,48.799999,980.239990
16/06/2023,19:47:43.599,-911,-73,-152,224,525,-50,559,-13,520,24.700001,48.799999,980.239990
16/06/2023,19:47:43.608,-918,-58,-147,313,539,-57,534,0,523,24.700001,48.799999,980.239990
16/06/2023,19:47:43.617,-930,-59,-133,406,536,-72,547,-3,519,24.700001,48.799999,980.239990
16/06/2023,19:47:43.627,-933,-98,-137,484,497,-89,535,-3,532,24.700001,48.799999,980.239990
16/06/2023,19:47:43.636,-924,-150,-160,530,461,-112,532,1,523,24.700001,48.799999,980.239990
16/06/2023,19:47:43.645,-924,-183,-182,551,439,-122,538,4,534,24.700001,48.799999,980.239990
16/06/2023,19:47:43.655,-918,-213,-183,581,435,-126,550,21,532,24.700001,48.799999,980.239990
16/06/2023,19:47:43.664,-905,-245,-160,615,442,-131,537,10,520,24.700001,48.799999,980.239990
16/06/2023,19:47:43.673,-905,-245,-160,626,461,-137,537,10,520,24.700001,48.799999,980.239990
16/06/2023,19:47:43.682,-900,-274,-106,604,449,-150,513,30,541,24.700001,48.799999,980.239990
16/06/2023,19:47:43.692,-907,-301,-37,570,381,-163,528,36,538,24.700001,48.799999,980.239990
16/06/2023,19:47:43.702,-921,-330,30,542,264,-164,525,48,550,24.700001,48.799999,980.239990
16/06/2023,19:47:43.711,-923,-354,59,519,161,-143,519,48,547,24.700001,48.799999,980.239990
16/06/2023,19:47:43.720,-919,-356,46,483,94,-119,526,51,546,24.700001,48.799999,980.239990
16/06/2023,19:47:43.730,-909,-333,10,398,57,-103,516,31,535,24.700001,48.799999,980.239990
16/06/2023,19:47:43.739,-896,-300,-45,256,53,-104,534,52,550,24.700001,48.799999,980.239990
16/06/2023,19:47:43.749,-888,-278,-108,76,74,-118,510,43,553,24.700001,48.799999,980.239990
16/06/2023,19:47:43.758,-890,-278,-162,-103,85,-135,504,45,553,24.700001,48.799999,980.239990
16/06/2023,19:47:43.767,-901,-292,-202,-256,62,-149,504,45,553,24.700001,48.799999,980.239990
16/06/2023,19:47:43.776,-926,-308,-243,-376,38,-162,534,51,529,24.700001,48.799999,980.239990
16/06/2023,19:47:43.786,-1006,-317,-301,-445,51,-181,529,27,555,24.700001,48.799999,980.239990
16/06/2023,19:47:43.805,-1192,-322,-394,-338,188,-202,505,40,559,24.700001,48.799999,980.239990
16/06/2023,19:47:43.814,-1223,-316,-369,-259,233,-181,516,42,555,24.700001,48.799999,980.239990
16/06/2023,19:47:43.823,-1208,-312,-289,-226,224,-158,498,31,556,24.700001,48.799999,980.239990
16/06/2023,19:47:43.833,-1216,-311,-142,-169,207,-140,522,39,543,24.700001,48.799999,980.239990
16/06/2023,19:47:43.842,-1268,-407,-12,-42,78,-117,499,31,556,24.700001,48.799999,980.239990
16/06/2023,19:47:43.852,-1262,-551,5,45,-146,-100,501,33,552,24.700001,48.799999,980.239990
16/06/2023,19:47:43.860,-1201,-618,-17,-6,-273,-77,501,33,552,24.700001,48.799999,980.239990
16/06/2023,19:47:43.870,-1157,-630,0,-159,-314,-30,513,48,555,24.700001,48.799999,980.239990
16/06/2023,19:47:43.880,-1111,-615,67,-253,-353,30,513,33,546,24.700001,48.799999,980.239990
16/06/2023,19:47:43.889,-1068,-591,162,-208,-406,104,513,36,552,24.700001,48.799999,980.239990
16/06/2023,19:47:43.898,-1054,-574,283,-103,-507,198,520,48,541,24.700001,48.799999,980.239990
16/06/2023,19:47:43.908,-1060,-541,385,-92,-666,266,529,27,538,24.700001,48.799999,980.239990
16/06/2023,19:47:43.917,-1059,-469,436,-209,-795,312,522,28,552,24.700001,48.799999,980.239990
16/06/2023,19:47:43.927,-1074,-367,431,-470,-796,318,513,19,543,24.700001,48.799999,980.239990
16/06/2023,19:47:43.936,-1155,-258,397,-470,-796,318,535,31,520,24.700001,48.799999,980.239990
16/06/2023,19:47:43.945,-1268,-155,376,-910,-705,291,526,25,516,24.700001,48.799999,980.239990
16/06/2023,19:47:43.954,-1329,-62,312,-1440,-677,217,526,25,516,24.700001,48.799999,980.239990
16/06/2023,19:47:43.963,-1288,15,123,-1720,-746,141,525,18,531,24.700001,48.799999,980.239990
16/06/2023,19:47:43.973,-1199,62,-155,-1708,-847,100,550,1,525,24.700001,48.900002,980.159973
16/06/2023,19:47:43.983,-1121,67,-383,-1606,-966,116,550,1,525,24.700001,48.900002,980.159973
16/06/2023,19:47:43.992,-1093,50,-483,-1486,-1002,86,528,-1,513,24.700001,48.900002,980.159973
16/06/2023,19:47:44.001,-1114,54,-551,-1345,-1045,58,550,-37,510,24.700001,48.900002,980.159973
16/06/2023,19:47:44.011,-1094,60,-614,-1047,-1171,42,550,-12,499,24.700001,48.900002,980.159973
16/06/2023,19:47:44.020,-1094,60,-614,-529,-1220,78,562,-27,483,24.700001,48.900002,980.159973
16/06/2023,19:47:44.030,-1048,54,-597,75,-1193,165,562,-12,475,24.700001,48.900002,980.159973
16/06/2023,19:47:44.038,-1042,64,-529,652,-1158,230,562,-12,475,24.700001,48.900002,980.159973
16/06/2023,19:47:44.048,-1060,45,-428,1093,-1114,289,565,-6,465,24.700001,48.900002,980.159973
16/06/2023,19:47:44.058,-1112,-2,-311,1357,-1059,338,558,-22,471,24.700001,48.900002,980.159973
16/06/2023,19:47:44.067,-1150,-62,-233,1488,-991,352,574,-22,448,24.700001,48.900002,980.159973
16/06/2023,19:47:44.076,-1106,-121,-176,1529,-866,382,579,-24,457,24.700001,48.900002,980.159973
16/06/2023,19:47:44.086,-1019,-151,-114,1465,-753,417,577,12,451,24.700001,48.900002,980.159973
16/06/2023,19:47:44.095,-918,-171,-79,1336,-640,427,579,-4,435,24.700001,48.900002,980.159973
16/06/2023,19:47:44.105,-833,-203,-43,1086,-492,465,582,-13,442,24.700001,48.900002,980.159973
16/06/2023,19:47:44.114,-805,-243,-50,903,-437,549,565,-22,451,24.700001,48.900002,980.159973
16/06/2023,19:47:44.123,-809,-287,-37,737,-324,609,565,-22,451,24.700001,48.900002,980.159973
16/06/2023,19:47:44.132,-811,-314,-28,387,-212,626,585,-13,436,24.700001,48.900002,980.159973
16/06/2023,19:47:44.142,-798,-273,-142,342,-214,595,589,-13,426,24.700001,48.900002,980.159973
16/06/2023,19:47:44.151,-777,-193,-209,570,-173,554,585,-16,421,24.700001,48.900002,980.159973
16/06/2023,19:47:44.161,-798,-107,-141,563,-53,505,580,-31,453,24.700001,48.900002,980.159973
16/06/2023,19:47:44.170,-793,-26,-76,299,0,416,571,-25,426,24.700001,48.900002,980.159973
16/06/2023,19:47:44.179,-750,30,-90,-22,52,361,582,-30,436,24.700001,48.900002,980.159973
16/06/2023,19:47:44.189,-727,55,-102,-332,74,281,568,-30,438,24.700001,48.900002,980.159973
16/06/2023,19:47:44.198,-704,75,-111,-555,57,186,591,-33,430,24.700001,48.900002,980.159973
16/06/2023,19:47:44.208,-693,105,-139,-616,51,125,576,-33,432,24.700001,48.900002,980.159973
16/06/2023,19:47:44.216,-685,133,-153,-580,65,69,576,-33,432,24.700001,48.900002,980.159973
16/06/2023,19:47:44.226,-657,175,-139,-516,60,9,577,-15,429,24.700001,48.900002,980.159973
16/06/2023,19:47:44.236,-623,216,-116,-468,92,-76,588,-30,430,24.700001,48.900002,980.159973
16/06/2023,19:47:44.245,-610,237,-107,-438,139,-176,580,-36,439,24.700001,48.900002,980.159973
16/06/2023,19:47:44.254,-619,233,-117,-394,202,-261,585,-42,429,24.700001,48.900002,980.159973
16/06/2023,19:47:44.264,-624,199,-122,-339,261,-332,579,-49,421,24.700001,48.900002,980.159973
16/06/2023,19:47:44.273,-627,153,-118,-284,325,-387,589,-28,444,24.700001,48.900002,980.159973
16/06/2023,19:47:44.283,-682,127,-90,-284,325,-387,586,-19,445,24.700001,48.900002,980.159973
16/06/2023,19:47:44.292,-743,98,-24,-227,321,-442,577,-34,444,24.700001,48.900002,980.159973
16/06/2023,19:47:44.301,-803,18,94,-224,336,-512,589,-42,450,24.700001,48.900002,980.159973
16/06/2023,19:47:44.310,-921,-107,214,-359,335,-573,589,-42,450,24.700001,48.900002,980.159973
16/06/2023,19:47:44.319,-1104,-298,382,-560,228,-626,579,-15,457,24.700001,48.900002,980.159973
16/06/2023,19:47:44.329,-1374,-553,686,-641,-13,-594,576,-25,448,24.700001,48.900002,980.159973
16/06/2023,19:47:44.339,-1662,-896,1080,-575,-360,-442,574,-19,433,24.700001,48.900002,980.159973
16/06/2023,19:47:44.348,-1746,-1427,1343,-277,-600,-81,559,-24,441,24.700001,48.900002,980.159973
16/06/2023,19:47:44.358,-1517,-1919,1152,24,-581,396,565,-22,450,24.700001,48.900002,980.159973
16/06/2023,19:47:44.367,-1517,-1919,1152,268,-136,883,574,-39,435,24.700001,48.900002,980.159973
16/06/2023,19:47:44.376,-1322,-1816,843,103,489,985,568,-30,433,24.700001,48.900002,980.159973
16/06/2023,19:47:44.386,-1200,-1235,620,-680,534,639,586,-39,441,24.700001,48.900002,980.159973
16/06/2023,19:47:44.395,-1024,-715,214,-1204,119,365,558,-45,453,24.700001,48.900002,980.159973
16/06/2023,19:47:44.404,-944,-380,-207,-1076,-246,296,558,-45,453,24.700001,48.900002,980.159973
16/06/2023,19:47:44.414,-1016,-171,-456,-596,-362,247,568,-39,442,24.700001,48.900002,980.159973
16/06/2023,19:47:44.423,-1228,-10,-511,-86,-341,39,577,-69,415,24.700001,48.900002,980.159973
16/06/2023,19:47:44.432,-1348,56,-422,273,-283,-22,577,-61,427,24.700001,48.900002,980.159973
16/06/2023,19:47:44.442,-1296,53,-311,394,-77,100,588,-70,441,24.700001,48.900002,980.159973
16/06/2023,19:47:44.451,-1186,100,-175,385,214,194,565,-46,433,24.700001,48.900002,980.159973
16/06/2023,19:47:44.461,-1027,238,-39,352,305,219,573,-66,430,24.700001,48.900002,980.159973
16/06/2023,19:47:44.470,-897,422,-51,276,216,149,574,-54,420,24.700001,48.900002,980.159973
16/06/2023,19:47:44.479,-920,565,-217,297,108,-85,555,-51,457,24.700001,48.900002,980.159973
16/06/2023,19:47:44.488,-995,604,-365,476,160,-397,555,-51,457,24.700001,48.900002,980.159973
16/06/2023,19:47:44.497,-978,602,-225,655,220,-554,562,-42,438,24.700001,48.900002,980.159973
16/06/2023,19:47:44.517,-835,681,228,235,-282,-433,574,-27,441,24.700001,48.900002,980.159973
16/06/2023,19:47:44.526,-870,430,-185,489,238,-472,564,-43,453,24.700001,48.900002,980.159973
16/06/2023,19:47:44.536,-941,158,-368,855,677,-481,565,-30,444,24.700001,48.900002,980.159973
16/06/2023,19:47:44.545,-963,37,-345,999,703,-508,562,-21,463,24.700001,48.900002,980.159973
16/06/2023,19:47:44.554,-923,-55,-276,839,530,-543,573,-34,465,24.700001,48.900002,980.159973
16/06/2023,19:47:44.564,-894,-149,-257,494,379,-573,567,-19,445,24.700001,48.900002,980.159973
16/06/2023,19:47:44.573,-886,-234,-301,107,316,-611,555,-6,472,24.700001,48.900002,980.159973
16/06/2023,19:47:44.582,-867,-316,-361,-242,308,-607,555,-6,472,24.700001,48.900002,980.159973
16/06/2023,19:47:44.591,-849,-397,-404,-495,310,-554,573,-10,466,24.700001,48.900002,980.159973
16/06/2023,19:47:44.601,-866,-472,-416,-694,335,-486,562,12,457,24.700001,48.900002,980.159973
16/06/2023,19:47:44.610,-923,-538,-421,-875,369,-427,565,10,469,24.700001,48.900002,980.159973
16/06/2023,19:47:44.620,-986,-582,-444,-1009,476,-402,543,9,474,24.700001,48.900002,980.159973
16/06/2023,19:47:44.629,-987,-640,-487,-717,652,-345,561,-9,456,24.700001,48.900002,980.159973
16/06/2023,19:47:44.639,-969,-729,-368,-717,652,-345,531,3,462,24.700001,48.900002,980.159973
16/06/2023,19:47:44.648,-987,-698,-106,223,739,-225,549,7,492,24.700001,48.900002,980.159973
16/06/2023,19:47:44.657,-997,-566,63,682,739,-125,532,13,507,24.700001,48.900002,980.159973
16/06/2023,19:47:44.670,-976,-439,151,560,654,-79,525,10,504,24.700001,48.900002,980.159973
16/06/2023,19:47:44.675,-954,-306,115,125,555,-121,525,10,504,24.700001,48.900002,980.159973
16/06/2023,19:47:44.685,-942,-207,11,-231,449,-132,543,21,505,24.700001,48.900002,980.159973
16/06/2023,19:47:44.695,-932,-142,-33,-306,535,-107,529,16,498,24.700001,48.900002,980.159973
16/06/2023,19:47:44.704,-927,-133,-18,-186,572,-82,529,-6,508,24.700001,48.900002,980.159973
16/06/2023,19:47:44.714,-927,-133,-18,-105,568,-65,520,21,502,24.700001,48.900002,980.159973
16/06/2023,19:47:44.723,-914,-160,12,-149,557,-54,523,13,504,24.700001,48.900002,980.159973
16/06/2023,19:47:44.732,-894,-148,0,-199,572,-47,519,16,502,24.700001,48.900002,980.159973
16/06/2023,19:47:44.742,-902,-111,-17,-116,582,-44,522,-6,529,24.700001,48.900002,980.159973
16/06/2023,19:47:44.751,-900,-119,-10,0,542,-49,523,3,528,24.700001,48.900002,980.159973
16/06/2023,19:47:44.760,-888,-129,-8,-4,512,-47,514,13,529,24.700001,48.900002,980.159973
16/06/2023,19:47:44.772,-890,-113,-20,5,467,-48,514,13,529,24.700001,48.900002,980.159973
16/06/2023,19:47:44.779,-895,-110,-37,48,444,-48,513,10,531,24.700001,48.900002,980.159973
16/06/2023,19:47:44.788,-901,-108,-41,93,445,-52,513,10,531,24.700001,48.900002,980.159973
16/06/2023,19:47:44.798,-908,-103,-33,110,455,-53,520,-3,531,24.700001,48.900002,980.159973
16/06/2023,19:47:44.807,-920,-107,-31,148,436,-53,528,10,523,24.700001,48.900002,980.159973
16/06/2023,19:47:44.817,-935,-118,-39,235,417,-54,498,6,543,24.700001,48.900002,980.159973
16/06/2023,19:47:44.826,-956,-146,-43,335,373,-55,502,13,544,24.700001,48.900002,980.159973
16/06/2023,19:47:44.835,-961,-181,-65,433,324,-46,513,9,531,24.700001,48.900002,980.159973
16/06/2023,19:47:44.844,-939,-223,-92,525,310,-30,489,10,538,24.700001,48.900002,980.159973
16/06/2023,19:47:44.853,-929,-258,-118,594,322,-14,489,10,538,24.700001,48.900002,980.159973
16/06/2023,19:47:44.863,-928,-285,-143,648,322,-11,496,6,541,24.700001,48.900002,980.159973
16/06/2023,19:47:44.873,-902,-310,-152,667,302,-20,487,22,555,24.700001,48.900002,980.159973
16/06/2023,19:47:44.882,-849,-328,-148,621,262,-23,469,30,544,24.700001,48.900002,980.159973
16/06/2023,19:47:44.892,-808,-344,-132,478,222,-25,478,7,558,24.700001,48.900002,980.159973
16/06/2023,19:47:44.901,-824,-349,-120,256,191,-61,489,39,553,24.700001,48.900002,980.159973
16/06/2023,19:47:44.910,-868,-332,-142,40,199,-103,489,9,541,24.700001,48.900002,980.159973
16/06/2023,19:47:44.920,-937,-301,-177,-61,273,-139,480,25,534,24.700001,48.900002,980.159973
16/06/2023,19:47:44.929,-1037,-293,-213,-36,312,-150,471,30,558,24.700001,48.900002,980.159973
16/06/2023,19:47:44.938,-1127,-307,-230,31,298,-143,478,30,552,24.700001,48.900002,980.159973
16/06/2023,19:47:44.947,-1167,-313,-202,41,269,-138,478,30,552,24.700001,48.900002,980.159973
16/06/2023,19:47:44.957,-1182,-294,-149,7,258,-135,484,39,549,24.700001,48.900002,980.159973
16/06/2023,19:47:44.966,-1234,-284,-86,-29,223,-126,480,25,556,24.700001,48.900002,980.159973
16/06/2023,19:47:44.979,-1306,-347,-29,-96,162,-105,471,12,556,24.700001,48.900002,980.159973
16/06/2023,19:47:44.985,-1312,-446,18,-96,162,-105,453,34,580,24.700001,48.900002,980.159973
16/06/2023,19:47:44.995,-1251,-514,54,-186,-12,-99,469,30,567,24.700001,48.900002,980.159973
16/06/2023,19:47:45.004,-1196,-549,97,-241,-189,-71,453,31,564,24.700001,48.900002,980.159973
16/06/2023,19:47:45.013,-1162,-557,177,-29,-355,129,453,31,564,24.700001,49.200001,980.159973
16/06/2023,19:47:45.023,-1147,-526,283,-29,-355,129,478,27,555,24.700001,49.200001,980.130005
16/06/2023,19:47:45.032,-1137,-478,360,203,-517,263,469,27,546,24.700001,49.200001,980.130005
16/06/2023,19:47:45.041,-1137,-478,360,416,-752,391,469,27,546,24.700001,49.200001,980.130005
16/06/2023,19:47:45.050,-1115,-432,361,501,-953,483,487,27,541,24.700001,49.200001,980.130005
16/06/2023,19:47:45.060,-1078,-364,322,378,-1013,541,478,19,538,24.700001,49.200001,980.130005
16/06/2023,19:47:45.070,-1073,-276,291,62,-909,557,472,31,552,24.700001,49.200001,980.130005
16/06/2023,19:47:45.079,-1146,-173,293,-426,-796,505,495,7,526,24.700001,49.200001,980.130005
16/06/2023,19:47:45.088,-1260,-66,322,-1032,-749,353,490,19,532,24.700001,49.200001,980.130005
16/06/2023,19:47:45.098,-1331,3,298,-1527,-751,181,481,3,544,24.700001,49.200001,980.130005
16/06/2023,19:47:45.107,-1290,46,143,-1736,-805,39,481,12,540,24.700001,49.200001,980.130005
16/06/2023,19:47:45.116,-1184,57,-111,-1798,-801,-51,487,-13,535,24.700001,49.200001,980.130005
16/06/2023,19:47:45.126,-1140,20,-364,-1621,-869,-23,495,-13,520,24.700001,49.200001,980.130005
16/06/2023,19:47:45.135,-1181,-18,-523,-1169,-1010,34,495,-13,520,24.700001,49.200001,980.130005
16/06/2023,19:47:45.144,-1219,-37,-564,-614,-1112,48,490,-34,519,24.700001,49.200001,980.130005
16/06/2023,19:47:45.154,-1193,-22,-563,-84,-1169,47,489,-19,525,24.700001,49.200001,980.130005
16/06/2023,19:47:45.163,-1179,8,-541,385,-1135,62,498,-18,507,24.700001,49.200001,980.130005
16/06/2023,19:47:45.173,-1202,27,-482,821,-1131,132,508,-21,508,24.700001,49.200001,980.130005
16/06/2023,19:47:45.182,-1188,50,-422,1275,-1088,253,486,-18,505,24.700001,49.200001,980.130005
16/06/2023,19:47:45.191,-1181,117,-320,1732,-973,347,505,-36,492,24.700001,49.200001,980.130005
16/06/2023,19:47:45.201,-1175,143,-177,1980,-895,385,505,-25,475,24.700001,49.200001,980.130005
16/06/2023,19:47:45.210,-1125,91,-63,2000,-812,399,510,-22,480,24.700001,49.200001,980.130005
16/06/2023,19:47:45.219,-1060,36,7,1848,-781,411,516,-13,477,24.700001,49.200001,980.130005
16/06/2023,19:47:45.266,-663,-147,-180,-2,-380,328,507,-10,490,24.700001,49.200001,980.130005
16/06/2023,19:47:45.276,-676,-161,-266,285,-328,359,508,-24,481,24.700001,49.200001,980.130005
16/06/2023,19:47:45.285,-702,-154,-252,512,-300,358,523,-9,492,24.700001,49.200001,980.130005
16/06/2023,19:47:45.294,-687,-133,-222,572,-270,312,510,-16,496,24.700001,49.200001,980.130005
16/06/2023,19:47:45.304,-642,-107,-214,455,-147,260,523,-21,487,24.700001,49.200001,980.130005
16/06/2023,19:47:45.313,-607,-53,-223,455,-147,260,516,-27,498,24.700001,49.200001,980.130005
16/06/2023,19:47:45.322,-599,16,-205,319,0,195,502,-9,484,24.700001,49.200001,980.130005
16/06/2023,19:47:45.331,-576,50,-146,350,40,165,502,-9,484,24.700001,49.200001,980.130005
16/06/2023,19:47:45.341,-555,77,-99,263,107,109,504,-24,501,24.700001,49.200001,980.130005
16/06/2023,19:47:45.351,-554,99,-102,-50,186,11,501,-40,495,24.700001,49.200001,980.130005
16/06/2023,19:47:45.360,-564,109,-126,-280,138,-84,501,-42,514,24.700001,49.200001,980.130005
16/06/2023,19:47:45.369,-583,127,-148,-397,103,-168,493,-30,514,24.700001,49.200001,980.130005
16/06/2023,19:47:45.379,-601,140,-162,-451,125,-247,496,-33,520,24.700001,49.200001,980.130005
16/06/2023,19:47:45.388,-603,129,-176,-463,133,-319,496,-30,508,24.700001,49.200001,980.130005
16/06/2023,19:47:45.397,-600,88,-167,-470,114,-375,496,-33,526,24.700001,49.200001,980.130005
16/06/2023,19:47:45.407,-600,88,-167,-516,72,-415,490,-46,510,24.700001,49.200001,980.130005
16/06/2023,19:47:45.416,-630,21,-139,-615,-15,-454,484,-31,507,24.700001,49.200001,980.130005
16/06/2023,19:47:45.425,-706,-57,-117,-735,-110,-504,484,-31,507,24.700001,49.200001,980.130005
16/06/2023,19:47:45.434,-805,-145,-77,-900,-109,-536,507,-18,514,24.700001,49.200001,980.130005
16/06/2023,19:47:45.444,-920,-241,41,-1066,-75,-500,475,-36,507,24.700001,49.200001,980.130005
16/06/2023,19:47:45.454,-1118,-323,277,-1165,-114,-416,495,-31,487,24.700001,49.200001,980.130005
16/06/2023,19:47:45.463,-1468,-430,730,-875,-341,-203,478,-25,526,24.700001,49.200001,980.130005
16/06/2023,19:47:45.472,-1967,-670,1595,164,-854,254,489,-25,499,24.700001,49.200001,980.130005
16/06/2023,19:47:45.482,-1998,-1536,2080,1240,-917,996,501,-39,514,24.700001,49.200001,980.130005
16/06/2023,19:47:45.491,-1473,-2286,1693,1215,-158,1622,493,-40,495,24.700001,49.200001,980.130005
16/06/2023,19:47:45.501,-1170,-1886,1091,-317,670,1383,474,-46,493,24.700001,49.200001,980.130005
16/06/2023,19:47:45.510,-1018,-1089,456,-1488,760,802,480,-69,502,24.700001,49.200001,980.130005
16/06/2023,19:47:45.519,-843,-534,-76,-1774,395,433,480,-69,502,24.700001,49.200001,980.130005
16/06/2023,19:47:45.528,-781,-186,-341,-1513,28,300,469,-87,526,24.700001,49.200001,980.130005
16/06/2023,19:47:45.538,-767,34,-470,-1009,-192,226,471,-102,525,24.700001,49.200001,980.130005
16/06/2023,19:47:45.547,-833,179,-551,-519,-337,121,454,-96,514,24.700001,49.200001,980.130005
16/06/2023,19:47:45.557,-969,245,-597,-55,-381,-67,468,-97,511,24.700001,49.200001,980.130005
16/06/2023,19:47:45.566,-1109,214,-497,209,-257,-143,468,-108,532,24.700001,49.200001,980.130005
16/06/2023,19:47:45.575,-1265,230,-282,322,24,-187,489,-118,511,24.700001,49.200001,980.130005
16/06/2023,19:47:45.585,-1368,292,-87,374,290,-282,471,-117,502,24.700001,49.200001,980.130005
16/06/2023,19:47:45.594,-1359,307,48,206,485,-392,469,-109,529,24.700001,49.200001,980.130005
16/06/2023,19:47:45.604,-1299,363,232,-109,494,-441,465,-123,517,24.700001,49.200001,980.130005
16/06/2023,19:47:45.612,-1234,533,337,-410,323,-506,465,-123,517,24.700001,49.200001,980.130005
16/06/2023,19:47:45.622,-1115,623,111,-207,121,-461,456,-120,523,24.700001,49.200001,980.130005
16/06/2023,19:47:45.632,-977,505,-241,288,23,-428,466,-126,525,24.700001,49.200001,980.130005
16/06/2023,19:47:45.641,-901,322,-453,731,302,-388,468,-118,522,24.700001,49.200001,980.130005
16/06/2023,19:47:45.650,-913,191,-402,1017,554,-350,456,-118,541,24.700001,49.200001,980.130005
16/06/2023,19:47:45.660,-960,99,-263,1120,517,-372,468,-118,535,24.700001,49.200001,980.130005
16/06/2023,19:47:45.669,-982,1,-246,1054,458,-412,450,-96,547,24.700001,49.200001,980.130005
16/06/2023,19:47:45.678,-959,-84,-245,1054,458,-412,457,-105,540,24.700001,49.200001,980.130005
16/06/2023,19:47:45.688,-894,-156,-207,839,429,-444,448,-87,553,24.700001,49.200001,980.130005
16/06/2023,19:47:45.697,-855,-215,-192,568,330,-450,448,-87,553,24.700001,49.200001,980.130005
16/06/2023,19:47:45.706,-843,-279,-185,280,260,-461,459,-96,535,24.700001,49.200001,980.130005
16/06/2023,19:47:45.716,-851,-360,-181,-29,212,-466,444,-97,568,24.700001,49.200001,980.130005
16/06/2023,19:47:45.725,-858,-429,-231,-408,173,-452,451,-109,580,24.700001,49.200001,980.130005
16/06/2023,19:47:45.735,-859,-465,-328,-799,186,-439,445,-100,559,24.700001,49.200001,980.130005
16/06/2023,19:47:45.744,-878,-463,-369,-1046,360,-409,433,-109,552,24.700001,49.200001,980.130005
16/06/2023,19:47:45.753,-878,-463,-369,-1078,553,-358,418,-115,555,24.700001,49.200001,980.130005
16/06/2023,19:47:45.763,-891,-477,-354,-859,719,-303,435,-109,556,24.700001,49.200001,980.130005
16/06/2023,19:47:45.772,-895,-530,-239,-235,796,-204,432,-112,574,24.700001,49.200001,980.130005
16/06/2023,19:47:45.781,-925,-521,-77,266,765,-72,432,-112,574,24.700001,49.200001,980.130005
16/06/2023,19:47:45.790,-966,-464,17,329,759,0,417,-114,559,24.700001,49.200001,980.130005
16/06/2023,19:47:45.800,-993,-402,64,87,735,10,415,-121,552,24.700001,49.200001,980.130005
16/06/2023,19:47:45.810,-998,-281,42,-181,648,-3,417,-117,553,24.700001,49.200001,980.130005
16/06/2023,19:47:45.819,-981,-169,-44,-96,604,40,409,-117,583,24.700001,49.200001,980.130005
16/06/2023,19:47:45.828,-973,-154,-97,210,646,99,418,-132,573,24.700001,49.200001,980.130005
16/06/2023,19:47:45.838,-964,-182,-45,366,717,117,406,-130,580,24.700001,49.200001,980.130005
16/06/2023,19:47:45.847,-935,-186,8,405,688,108,417,-132,580,24.700001,49.200001,980.130005
16/06/2023,19:47:45.857,-909,-173,3,439,646,97,403,-127,585,24.700001,49.200001,980.130005
16/06/2023,19:47:45.866,-898,-154,0,484,645,77,382,-129,585,24.700001,49.200001,980.130005
16/06/2023,19:47:45.875,-904,-125,21,502,630,44,382,-129,585,24.700001,49.200001,980.130005
16/06/2023,19:47:45.884,-925,-109,27,504,532,22,399,-121,589,24.700001,49.200001,980.130005
16/06/2023,19:47:45.894,-934,-107,0,539,419,0,391,-115,580,24.700001,49.200001,980.130005
16/06/2023,19:47:45.903,-916,-111,-25,572,341,-14,391,-118,580,24.700001,49.200001,980.130005
16/06/2023,19:47:45.913,-894,-116,-49,550,313,-32,399,-126,582,24.700001,49.200001,980.130005
16/06/2023,19:47:45.922,-890,-118,-77,465,330,-53,387,-109,579,24.700001,49.200001,980.130005
16/06/2023,19:47:45.931,-889,-128,-100,374,374,-72,388,-115,606,24.700001,49.200001,980.130005
16/06/2023,19:47:45.941,-895,-139,-118,301,432,-86,388,-126,592,24.700001,49.200001,980.130005
16/06/2023,19:47:45.950,-917,-146,-130,279,472,-103,388,-105,567,24.700001,49.200001,980.130005
16/06/2023,19:47:45.960,-941,-159,-134,279,484,-118,391,-109,607,24.700001,49.200001,980.130005
16/06/2023,19:47:45.978,-966,-202,-139,240,462,-128,391,-97,597,24.700001,49.200001,980.130005
16/06/2023,19:47:45.988,-968,-210,-161,201,458,-125,379,-108,580,24.700001,49.200001,980.130005
16/06/2023,19:47:45.997,-960,-212,-193,168,472,-121,385,-100,588,24.700001,49.200001,980.130005
16/06/2023,19:47:46.006,-962,-205,-223,158,489,-114,367,-91,591,24.700001,49.200001,980.130005
16/06/2023,19:47:46.016,-973,-194,-235,172,491,-106,391,-115,595,24.700001,49.200001,980.130005
16/06/2023,19:47:46.025,-978,-180,-220,172,491,-106,361,-94,589,24.700001,49.200001,980.130005
16/06/2023,19:47:46.035,-990,-168,-181,210,475,-101,357,-103,598,24.700001,49.200001,980.130005
16/06/2023,19:47:46.044,-1009,-161,-96,255,448,-99,370,-87,597,24.700001,49.200001,980.130005
16/06/2023,19:47:46.055,-1028,-178,8,329,411,-100,370,-87,597,24.700001,48.900002,980.130005
16/06/2023,19:47:46.062,-1041,-235,56,503,286,-94,381,-100,598,24.700001,48.900002,980.190002
16/06/2023,19:47:46.071,-1051,-302,38,743,105,-81,375,-78,594,24.700001,48.900002,980.190002
16/06/2023,19:47:46.081,-1063,-343,-10,890,-36,-75,388,-99,613,24.700001,48.900002,980.190002
16/06/2023,19:47:46.091,-1059,-364,-57,820,-116,-84,390,-84,594,24.700001,48.900002,980.190002
16/06/2023,19:47:46.100,-1059,-364,-57,562,-135,-107,375,-85,586,24.700001,48.900002,980.190002
16/06/2023,19:47:46.109,-1041,-389,-78,231,-121,-125,376,-79,582,24.700001,48.900002,980.190002
16/06/2023,19:47:46.119,-1022,-423,-72,-53,-93,-121,390,-72,610,24.700001,48.900002,980.190002
16/06/2023,19:47:46.128,-1010,-441,-16,-173,-71,-102,376,-84,583,24.700001,48.900002,980.190002
16/06/2023,19:47:46.138,-1001,-426,109,-145,-120,-70,393,-90,606,24.700001,48.900002,980.190002
16/06/2023,19:47:46.146,-991,-416,226,-37,-262,-42,393,-90,606,24.700001,48.900002,980.190002
16/06/2023,19:47:46.156,-1028,-471,198,63,-395,5,379,-90,589,24.700001,48.900002,980.190002
16/06/2023,19:47:46.166,-1131,-580,47,10,-436,84,388,-82,576,24.700001,48.900002,980.190002
16/06/2023,19:47:46.175,-1166,-619,-77,-248,-485,165,405,-81,570,24.700001,48.900002,980.190002
16/06/2023,19:47:46.184,-1103,-544,-127,-477,-500,222,409,-76,574,24.700001,48.900002,980.190002
16/06/2023,19:47:46.194,-1049,-488,-88,-440,-511,285,406,-76,559,24.700001,48.900002,980.190002
16/06/2023,19:47:46.203,-1018,-481,25,-195,-587,363,433,-82,553,24.700001,48.900002,980.190002
16/06/2023,19:47:46.213,-994,-466,157,23,-690,453,406,-91,555,24.700001,48.900002,980.190002
16/06/2023,19:47:46.222,-1031,-424,255,-17,-718,511,426,-81,553,24.700001,48.900002,980.190002
16/06/2023,19:47:46.231,-1165,-312,377,-372,-675,488,429,-81,556,24.700001,48.900002,980.190002
16/06/2023,19:47:46.240,-1303,-165,523,-892,-776,377,429,-81,556,24.700001,48.900002,980.190002
16/06/2023,19:47:46.249,-1346,-63,519,-1369,-927,249,459,-93,519,24.700001,48.900002,980.190002
16/06/2023,19:47:46.259,-1293,-5,250,-1752,-966,125,456,-87,537,24.700001,48.900002,980.190002
16/06/2023,19:47:46.269,-1222,34,-169,-1897,-944,63,489,-115,517,24.700001,48.900002,980.190002
16/06/2023,19:47:46.278,-1190,31,-471,-1743,-914,56,480,-108,502,24.700001,48.900002,980.190002
16/06/2023,19:47:46.287,-1220,-7,-565,-1372,-938,58,475,-127,490,24.700001,48.900002,980.190002
16/06/2023,19:47:46.297,-1261,-43,-548,-863,-1064,45,474,-115,472,24.700001,48.900002,980.190002
16/06/2023,19:47:46.306,-1219,-84,-524,-285,-1235,67,483,-138,489,24.700001,48.900002,980.190002
16/06/2023,19:47:46.316,-1168,-87,-501,297,-1315,136,496,-133,475,24.700001,48.900002,980.190002
16/06/2023,19:47:46.328,-1180,-53,-447,833,-1356,232,495,-124,463,24.700001,48.900002,980.190002
16/06/2023,19:47:46.334,-1200,-26,-356,1190,-1299,279,495,-124,463,24.700001,48.900002,980.190002
16/06/2023,19:47:46.343,-1184,-29,-225,1378,-1183,285,517,-108,459,24.700001,48.900002,980.190002
16/06/2023,19:47:46.353,-1153,-73,-136,1403,-1064,272,526,-111,456,24.700001,48.900002,980.190002
16/06/2023,19:47:46.362,-1113,-126,-112,1380,-910,282,546,-115,450,24.700001,48.900002,980.190002
16/06/2023,19:47:46.372,-1056,-152,-115,1380,-910,282,508,-100,438,24.700001,48.900002,980.190002
16/06/2023,19:47:46.381,-993,-182,-90,1421,-749,315,525,-96,459,24.700001,48.900002,980.190002
16/06/2023,19:47:46.391,-938,-223,-16,1466,-667,362,516,-97,427,24.700001,48.900002,980.190002
16/06/2023,19:47:46.400,-887,-235,27,1430,-655,416,541,-84,417,24.700001,48.900002,980.190002
16/06/2023,19:47:46.409,-837,-218,6,1277,-591,451,541,-97,433,24.700001,48.900002,980.190002
16/06/2023,19:47:46.419,-800,-162,-63,1044,-443,473,561,-90,423,24.700001,48.900002,980.190002
16/06/2023,19:47:46.427,-800,-162,-63,870,-314,488,561,-90,423,24.700001,48.900002,980.190002
16/06/2023,19:47:46.437,-763,-127,-86,647,-157,432,550,-90,441,24.700001,48.900002,980.190002
16/06/2023,19:47:46.447,-748,-124,-104,114,-83,374,540,-91,421,24.700001,48.900002,980.190002
16/06/2023,19:47:46.456,-732,-118,-189,-162,-114,319,538,-90,418,24.700001,48.900002,980.190002
16/06/2023,19:47:46.466,-714,-100,-243,-183,-100,274,546,-88,420,24.700001,48.900002,980.190002
16/06/2023,19:47:46.475,-704,-67,-260,-89,-18,239,546,-93,399,24.700001,48.900002,980.190002
16/06/2023,19:47:46.484,-689,-39,-230,-9,74,201,555,-90,417,24.700001,48.900002,980.190002
16/06/2023,19:47:46.494,-679,-12,-168,-44,126,150,546,-75,414,24.700001,48.900002,980.190002
16/06/2023,19:47:46.503,-673,27,-130,-137,158,93,559,-84,418,24.700001,48.900002,980.190002
16/06/2023,19:47:46.512,-676,89,-96,-274,192,10,559,-90,408,24.700001,48.900002,980.190002
16/06/2023,19:47:46.521,-659,143,-81,-416,200,-90,559,-90,408,24.700001,48.900002,980.190002
16/06/2023,19:47:46.530,-637,168,-92,-501,186,-189,558,-85,423,24.700001,48.900002,980.190002
16/06/2023,19:47:46.540,-636,159,-96,-551,163,-285,559,-87,417,24.700001,48.900002,980.190002
16/06/2023,19:47:46.550,-652,129,-96,-603,127,-370,541,-96,430,24.700001,48.900002,980.190002
16/06/2023,19:47:46.559,-667,88,-88,-665,92,-447,547,-84,418,24.700001,48.900002,980.190002
16/06/2023,19:47:46.569,-673,38,-60,-767,44,-512,552,-79,412,24.700001,48.900002,980.190002
16/06/2023,19:47:46.578,-692,-24,-20,-936,-25,-565,565,-78,418,24.700001,48.900002,980.190002
16/06/2023,19:47:46.587,-757,-102,32,-1163,-117,-626,549,-76,420,24.700001,48.900002,980.190002
16/06/2023,19:47:46.597,-876,-184,114,-1419,-217,-665,552,-52,420,24.700001,48.900002,980.190002
16/06/2023,19:47:46.606,-1019,-290,285,-1607,-340,-662,573,-64,403,24.700001,48.900002,980.190002
16/06/2023,19:47:46.615,-1209,-428,740,-1509,-546,-505,573,-64,403,24.700001,48.900002,980.190002
16/06/2023,19:47:46.624,-1422,-691,1205,-832,-743,-99,568,-67,400,24.700001,48.900002,980.190002
16/06/2023,19:47:46.634,-1457,-1222,1280,-90,-467,430,547,-72,412,24.700001,48.900002,980.190002
16/06/2023,19:47:46.644,-1311,-1602,1056,117,220,796,549,-60,393,24.700001,48.900002,980.190002
16/06/2023,19:47:46.653,-1136,-1275,764,-252,880,655,564,-87,397,24.700001,48.900002,980.190002
16/06/2023,19:47:46.662,-938,-718,466,-591,935,479,565,-73,385,24.700001,48.900002,980.190002
16/06/2023,19:47:46.672,-821,-453,268,-740,533,382,567,-88,420,24.700001,48.900002,980.190002
16/06/2023,19:47:46.690,-1153,-263,-123,-600,-179,121,574,-78,420,24.700001,48.900002,980.190002
16/06/2023,19:47:46.700,-1338,-282,-297,-600,-179,121,568,-96,408,24.700001,48.900002,980.190002
16/06/2023,19:47:46.708,-1475,-310,-375,117,-111,37,568,-96,408,24.700001,48.900002,980.190002
16/06/2023,19:47:46.718,-1453,-312,-431,376,-125,159,570,-66,430,24.700001,48.900002,980.190002
16/06/2023,19:47:46.728,-1166,-209,-535,376,-125,159,568,-79,390,24.700001,48.900002,980.190002
16/06/2023,19:47:46.737,-849,5,-573,450,139,293,561,-78,411,24.700001,48.900002,980.190002
16/06/2023,19:47:46.747,-742,229,-537,337,333,292,577,-93,420,24.700001,48.900002,980.190002
16/06/2023,19:47:46.756,-805,371,-542,180,256,115,570,-70,405,24.700001,48.900002,980.190002
16/06/2023,19:47:46.765,-891,414,-518,164,261,-231,582,-91,400,24.700001,48.900002,980.190002
16/06/2023,19:47:46.775,-1137,619,445,336,522,-540,555,-63,421,24.700001,48.900002,980.190002
16/06/2023,19:47:46.784,-1159,877,1128,463,262,-718,552,-79,430,24.700001,48.900002,980.190002
16/06/2023,19:47:46.793,-1159,877,1128,-352,-1380,-1076,573,-70,421,24.700001,48.900002,980.190002
16/06/2023,19:47:46.802,-902,857,250,-739,-573,-876,573,-70,421,24.700001,48.900002,980.190002
16/06/2023,19:47:46.812,-1016,545,-397,-39,569,-651,568,-43,394,24.700001,48.900002,980.190002
16/06/2023,19:47:46.822,-1220,114,-364,596,501,-538,568,-52,408,24.700001,48.900002,980.190002
16/06/2023,19:47:46.831,-1200,-172,-327,687,100,-423,564,-64,408,24.700001,48.900002,980.190002
16/06/2023,19:47:46.840,-1086,-314,-288,277,-86,-339,580,-46,439,24.700001,48.900002,980.190002
16/06/2023,19:47:46.850,-957,-382,-217,-389,-114,-315,565,-28,429,24.700001,48.900002,980.190002
16/06/2023,19:47:46.859,-831,-428,-182,-1080,27,-362,579,-48,412,24.700001,48.900002,980.190002
16/06/2023,19:47:46.868,-752,-489,-194,-1593,282,-434,576,-19,406,24.700001,48.900002,980.190002
16/06/2023,19:47:46.878,-732,-544,-217,-1662,603,-497,591,-54,415,24.700001,48.900002,980.190002
16/06/2023,19:47:46.887,-763,-606,-135,-1162,819,-411,570,-37,423,24.700001,48.900002,980.190002
16/06/2023,19:47:46.896,-863,-586,31,-547,791,-219,570,-37,423,24.700001,48.900002,980.190002
16/06/2023,19:47:46.905,-957,-466,142,-430,689,-131,576,-30,424,24.700001,48.900002,980.190002
16/06/2023,19:47:46.915,-991,-370,91,-573,606,-92,567,-22,426,24.700001,48.900002,980.190002
16/06/2023,19:47:46.925,-1021,-297,-40,-632,588,-48,571,-21,429,24.700001,48.900002,980.190002
16/06/2023,19:47:46.934,-1039,-216,-39,-645,606,-34,559,-39,439,24.700001,48.900002,980.190002
16/06/2023,19:47:46.943,-1012,-163,34,-739,627,-58,558,-55,432,24.700001,48.900002,980.190002
16/06/2023,19:47:46.953,-989,-136,55,-839,601,-84,547,-36,460,24.700001,48.900002,980.190002
16/06/2023,19:47:46.962,-1001,-105,45,-821,525,-99,553,-39,456,24.700001,48.900002,980.190002
16/06/2023,19:47:46.971,-973,-118,18,-728,494,-92,555,-39,466,24.700001,48.900002,980.190002
16/06/2023,19:47:46.981,-893,-187,-8,-697,614,-74,546,-49,471,24.700001,48.900002,980.190002
16/06/2023,19:47:46.990,-827,-233,-29,-709,664,-65,546,-49,471,24.700001,48.900002,980.190002
16/06/2023,19:47:46.999,-836,-206,-20,-636,630,-42,547,-55,471,24.700001,48.900002,980.190002
16/06/2023,19:47:47.009,-885,-136,5,-489,567,-7,537,-55,478,24.700001,48.900002,980.190002
16/06/2023,19:47:47.018,-902,-94,22,-339,548,8,531,-49,477,24.700001,48.900002,980.190002
16/06/2023,19:47:47.028,-903,-81,36,-226,528,17,543,-43,487,24.700001,48.900002,980.190002
16/06/2023,19:47:47.037,-917,-71,17,-113,494,26,549,-33,498,24.700001,48.900002,980.190002
16/06/2023,19:47:47.046,-939,-63,-19,32,464,26,547,-57,478,24.700001,48.900002,980.190002
16/06/2023,19:47:47.056,-942,-75,-50,197,462,18,544,-52,486,24.700001,48.900002,980.190002
16/06/2023,19:47:47.065,-941,-91,-74,197,462,18,531,-45,511,24.700001,48.900002,980.190002
16/06/2023,19:47:47.074,-947,-92,-90,320,490,10,525,-42,505,24.700001,48.900002,980.190002
16/06/2023,19:47:47.083,-946,-88,-105,410,522,-1,525,-42,505,24.700001,48.900002,980.190002
16/06/2023,19:47:47.093,-949,-76,-101,486,552,-14,526,-45,498,24.700001,48.900002,980.190002
16/06/2023,19:47:47.103,-958,-72,-80,556,569,-36,531,-33,492,24.700001,49.200001,980.200012
16/06/2023,19:47:47.112,-966,-72,-55,595,565,-69,529,-34,511,24.700001,49.200001,980.200012
16/06/2023,19:47:47.121,-964,-91,-34,599,508,-102,537,-39,510,24.700001,49.200001,980.200012
16/06/2023,19:47:47.131,-962,-141,-46,571,427,-141,549,-25,490,24.700001,49.200001,980.200012
16/06/2023,19:47:47.140,-962,-141,-46,534,348,-173,522,-40,516,24.700001,49.200001,980.200012
16/06/2023,19:47:47.149,-959,-195,-86,499,293,-194,514,-10,531,24.700001,49.200001,980.200012
16/06/2023,19:47:47.159,-960,-236,-137,468,285,-187,534,-21,538,24.700001,49.200001,980.200012
16/06/2023,19:47:47.168,-969,-263,-187,428,295,-168,534,-21,538,24.700001,49.200001,980.200012
16/06/2023,19:47:47.177,-972,-264,-235,366,308,-144,495,-12,525,24.700001,49.200001,980.200012
16/06/2023,19:47:47.187,-967,-238,-264,266,339,-132,523,-1,538,24.700001,49.200001,980.200012
16/06/2023,19:47:47.196,-970,-207,-263,151,382,-140,505,-9,529,24.700001,49.200001,980.200012
16/06/2023,19:47:47.206,-988,-180,-232,30,444,-150,508,-1,531,24.700001,49.200001,980.200012
16/06/2023,19:47:47.215,-1010,-145,-153,-97,494,-179,514,-19,552,24.700001,49.200001,980.200012
16/06/2023,19:47:47.224,-1039,-106,-10,-265,487,-221,516,-6,543,24.700001,49.200001,980.200012
16/06/2023,19:47:47.234,-1078,-97,119,-475,457,-246,495,-10,552,24.700001,49.200001,980.200012
16/06/2023,19:47:47.243,-1106,-120,157,-613,394,-268,505,-16,565,24.700001,49.200001,980.200012
16/06/2023,19:47:47.252,-1101,-173,115,-658,302,-293,477,-13,547,24.700001,49.200001,980.200012
16/06/2023,19:47:47.261,-1089,-244,25,-632,217,-305,477,-13,547,24.700001,49.200001,980.200012
16/06/2023,19:47:47.271,-1093,-311,-56,-564,122,-313,480,-6,543,24.700001,49.200001,980.200012
16/06/2023,19:47:47.281,-1078,-369,-94,-439,20,-308,502,-6,543,24.700001,49.200001,980.200012
16/06/2023,19:47:47.290,-1053,-453,-92,-294,-72,-278,498,-3,550,24.700001,49.200001,980.200012
16/06/2023,19:47:47.299,-1073,-571,-80,-184,-139,-220,483,-10,561,24.700001,49.200001,980.200012
16/06/2023,19:47:47.309,-1119,-683,-85,-134,-163,-134,517,-16,546,24.700001,49.200001,980.200012
16/06/2023,19:47:47.318,-1130,-737,-84,-167,-215,-40,496,1,558,24.700001,49.200001,980.200012
16/06/2023,19:47:47.327,-1109,-714,-67,-208,-240,26,514,-9,544,24.700001,49.200001,980.200012
16/06/2023,19:47:47.337,-1085,-642,-8,-186,-210,96,508,-19,543,24.700001,49.200001,980.200012
16/06/2023,19:47:47.346,-1057,-548,116,-110,-260,156,505,-1,558,24.700001,49.200001,980.200012
16/06/2023,19:47:47.355,-1044,-459,259,-85,-415,206,505,-1,558,24.700001,49.200001,980.200012
16/06/2023,19:47:47.364,-1056,-408,364,-189,-614,250,498,-15,549,24.700001,49.200001,980.200012
16/06/2023,19:47:47.374,-1068,-368,399,-432,-772,275,516,-13,555,24.700001,49.200001,980.200012
16/06/2023,19:47:47.384,-1052,-313,378,-760,-858,280,526,-4,531,24.700001,49.200001,980.200012
16/06/2023,19:47:47.402,-1091,-240,239,-1280,-717,264,532,-27,526,24.700001,49.200001,980.200012
16/06/2023,19:47:47.412,-1175,-182,183,-1280,-717,264,526,-30,511,24.700001,49.200001,980.200012
16/06/2023,19:47:47.421,-1210,-94,136,-1531,-539,202,522,-36,526,24.700001,49.200001,980.200012
16/06/2023,19:47:47.430,-1178,-7,9,-1731,-590,133,531,-52,507,24.700001,49.200001,980.200012
16/06/2023,19:47:47.440,-1086,15,-196,-1686,-826,111,534,-49,504,24.700001,49.200001,980.200012
16/06/2023,19:47:47.449,-1005,-37,-358,-1534,-931,89,534,-49,504,24.700001,49.200001,980.200012
16/06/2023,19:47:47.458,-983,-126,-431,-1380,-911,86,522,-49,517,24.700001,49.200001,980.200012
16/06/2023,19:47:47.468,-988,-228,-474,-1219,-901,101,555,-51,510,24.700001,49.200001,980.200012
16/06/2023,19:47:47.477,-1005,-300,-507,-1019,-902,126,534,-57,493,24.700001,49.200001,980.200012
16/06/2023,19:47:47.487,-1005,-300,-507,-754,-889,161,555,-52,477,24.700001,49.200001,980.200012
16/06/2023,19:47:47.496,-1039,-317,-528,-413,-910,215,562,-57,492,24.700001,49.200001,980.200012
16/06/2023,19:47:47.505,-1088,-276,-517,-46,-906,271,555,-69,495,24.700001,49.200001,980.200012
16/06/2023,19:47:47.515,-1137,-218,-432,249,-911,298,571,-84,474,24.700001,49.200001,980.200012
16/06/2023,19:47:47.524,-1162,-195,-323,458,-896,335,577,-64,454,24.700001,49.200001,980.200012
16/06/2023,19:47:47.534,-1175,-180,-244,570,-829,363,576,-75,456,24.700001,49.200001,980.200012
16/06/2023,19:47:47.542,-1154,-169,-176,628,-728,378,576,-75,456,24.700001,49.200001,980.200012
16/06/2023,19:47:47.552,-1115,-154,-114,669,-681,416,573,-88,463,24.700001,49.200001,980.200012
16/06/2023,19:47:47.562,-1065,-150,-92,655,-636,428,558,-76,451,24.700001,49.200001,980.200012
16/06/2023,19:47:47.571,-961,-179,-82,487,-421,421,577,-58,459,24.700001,49.200001,980.200012
16/06/2023,19:47:47.580,-881,-186,-78,295,-233,443,579,-66,453,24.700001,49.200001,980.200012
16/06/2023,19:47:47.590,-846,-167,-131,159,-146,471,586,-76,433,24.700001,49.200001,980.200012
16/06/2023,19:47:47.599,-828,-156,-171,26,-55,475,579,-64,436,24.700001,49.200001,980.200012
16/06/2023,19:47:47.609,-823,-172,-171,-211,38,460,571,-90,450,24.700001,49.200001,980.200012
16/06/2023,19:47:47.618,-817,-206,-190,-416,87,452,567,-81,442,24.700001,49.200001,980.200012
16/06/2023,19:47:47.627,-840,-233,-206,-567,104,471,567,-81,442,24.700001,49.200001,980.200012
16/06/2023,19:47:47.636,-868,-246,-215,-634,42,463,576,-102,448,24.700001,49.200001,980.200012
16/06/2023,19:47:47.646,-864,-225,-236,-579,29,434,568,-82,459,24.700001,49.200001,980.200012
16/06/2023,19:47:47.655,-854,-137,-246,-468,91,378,555,-109,466,24.700001,49.200001,980.200012
16/06/2023,19:47:47.665,-836,-34,-235,-369,172,323,555,-109,466,24.700001,49.200001,980.200012
16/06/2023,19:47:47.674,-810,21,-201,-384,234,271,576,-126,453,24.700001,49.200001,980.200012
16/06/2023,19:47:47.683,-781,56,-172,-543,284,219,573,-117,447,24.700001,49.200001,980.200012
16/06/2023,19:47:47.693,-759,106,-172,-699,299,153,568,-115,432,24.700001,49.200001,980.200012
16/06/2023,19:47:47.702,-743,150,-174,-760,295,93,586,-106,456,24.700001,49.200001,980.200012
16/06/2023,19:47:47.712,-726,170,-170,-762,305,28,561,-129,460,24.700001,49.200001,980.200012
16/06/2023,19:47:47.720,-702,170,-158,-724,332,-32,561,-129,460,24.700001,49.200001,980.200012
16/06/2023,19:47:47.730,-681,151,-130,-691,351,-97,553,-126,454,24.700001,49.200001,980.200012
16/06/2023,19:47:47.740,-695,116,-106,-675,359,-162,559,-126,445,24.700001,49.200001,980.200012
16/06/2023,19:47:47.749,-732,71,-87,-688,369,-222,565,-120,456,24.700001,49.200001,980.200012
16/06/2023,19:47:47.758,-760,20,-55,-688,369,-222,568,-126,468,24.700001,49.200001,980.200012
16/06/2023,19:47:47.768,-788,-35,-4,-720,393,-268,567,-136,465,24.700001,49.200001,980.200012
16/06/2023,19:47:47.777,-844,-87,67,-774,398,-293,559,-115,456,24.700001,49.200001,980.200012
16/06/2023,19:47:47.787,-924,-147,123,-863,325,-313,564,-121,459,24.700001,49.200001,980.200012
16/06/2023,19:47:47.796,-1005,-237,190,-986,212,-343,561,-118,457,24.700001,49.200001,980.200012
16/06/2023,19:47:47.805,-1103,-378,384,-1179,172,-354,571,-123,472,24.700001,49.200001,980.200012
16/06/2023,19:47:47.814,-1103,-378,384,-1469,130,-325,571,-123,472,24.700001,49.200001,980.200012
16/06/2023,19:47:47.823,-1225,-572,717,-1728,-7,-249,570,-129,451,24.700001,49.200001,980.200012
16/06/2023,19:47:47.833,-1292,-773,940,-1855,-34,-131,567,-132,433,24.700001,49.200001,980.200012
16/06/2023,19:47:47.843,-1236,-924,853,-1761,31,22,567,-147,460,24.700001,49.200001,980.200012
16/06/2023,19:47:47.852,-1143,-947,556,-1324,201,193,544,-145,456,24.700001,49.200001,980.200012
16/06/2023,19:47:47.861,-1104,-784,331,-887,330,306,568,-160,450,24.700001,49.200001,980.200012
16/06/2023,19:47:47.871,-1056,-580,257,-762,343,377,562,-154,438,24.700001,49.200001,980.200012
16/06/2023,19:47:47.880,-948,-439,144,-836,223,428,537,-157,439,24.700001,49.200001,980.200012
16/06/2023,19:47:47.890,-827,-326,-57,-740,81,432,553,-150,453,24.700001,49.200001,980.200012
16/06/2023,19:47:47.899,-759,-274,-193,-400,-7,432,559,-166,442,24.700001,49.200001,980.200012
16/06/2023,19:47:47.908,-833,-245,-309,-136,-9,401,559,-166,442,24.700001,49.200001,980.200012
16/06/2023,19:47:47.917,-1074,-166,-535,20,140,257,546,-174,442,24.700001,49.200001,980.200012
16/06/2023,19:47:47.927,-1321,-112,-688,60,361,122,547,-171,442,24.700001,49.200001,980.200012
16/06/2023,19:47:47.936,-1433,-118,-613,7,492,59,573,-163,454,24.700001,49.200001,980.200012
16/06/2023,19:47:47.949,-1342,-61,-372,-41,429,73,549,-171,457,24.700001,49.200001,980.200012
16/06/2023,19:47:47.955,-1102,55,-183,-100,333,72,559,-168,441,24.700001,49.200001,980.200012
16/06/2023,19:47:47.965,-866,108,-159,-66,220,23,556,-186,454,24.700001,49.200001,980.200012
16/06/2023,19:47:47.974,-771,138,-211,77,66,-31,546,-184,463,24.700001,49.200001,980.200012
16/06/2023,19:47:47.983,-900,196,-295,180,77,-114,540,-162,466,24.700001,49.200001,980.200012
16/06/2023,19:47:47.993,-1140,218,-329,247,240,-235,540,-166,463,24.700001,49.200001,980.200012
16/06/2023,19:47:48.001,-1335,213,-111,256,264,-338,540,-166,463,24.700001,49.200001,980.200012
16/06/2023,19:47:48.011,-1421,261,393,-131,-121,-451,549,-172,457,24.700001,49.200001,980.200012
16/06/2023,19:47:48.021,-1214,274,560,-730,-247,-506,567,-160,475,24.700001,49.200001,980.200012
16/06/2023,19:47:48.030,-979,197,333,-1058,-150,-533,544,-160,459,24.700001,49.200001,980.200012
16/06/2023,19:47:48.039,-942,107,153,-1122,-66,-569,541,-171,483,24.700001,49.200001,980.200012
16/06/2023,19:47:48.049,-898,-7,-12,-1060,12,-553,541,-174,483,24.700001,49.200001,980.200012
16/06/2023,19:47:48.058,-854,-123,-127,-993,65,-505,550,-166,477,24.700001,49.200001,980.200012
16/06/2023,19:47:48.068,-819,-203,-181,-1039,71,-471,553,-159,430,24.700001,49.200001,980.200012
16/06/2023,19:47:48.077,-808,-267,-215,-1205,94,-440,549,-187,453,24.700001,49.200001,980.200012
16/06/2023,19:47:48.086,-830,-339,-245,-1427,136,-417,550,-175,445,24.700001,49.200001,980.200012
16/06/2023,19:47:48.104,-878,-491,-323,-1526,481,-322,547,-165,457,24.700001,49.200001,980.200012
16/06/2023,19:47:48.114,-924,-593,-260,-1526,481,-322,577,-174,433,24.700001,49.200001,980.200012
16/06/2023,19:47:48.124,-976,-606,-155,-1268,581,-204,547,-195,454,24.700001,49.200001,980.200012
16/06/2023,19:47:48.133,-994,-488,-116,-1014,487,-112,558,-181,445,24.700001,49.200001,980.200012
16/06/2023,19:47:48.143,-1007,-326,-114,-795,361,-44,552,-183,439,24.700001,49.200001,980.179993
16/06/2023,19:47:48.152,-988,-267,-68,-385,235,42,552,-183,439,24.700001,49.200001,980.179993
16/06/2023,19:47:48.161,-957,-274,-15,-98,200,96,561,-187,465,24.700001,49.200001,980.179993
16/06/2023,19:47:48.171,-952,-233,11,-215,275,93,567,-186,448,24.700001,49.200001,980.179993
16/06/2023,19:47:48.179,-952,-233,11,-524,423,56,567,-186,448,24.700001,49.200001,980.179993
16/06/2023,19:47:48.189,-947,-184,-8,-726,530,29,550,-174,448,24.700001,49.200001,980.179993
16/06/2023,19:47:48.199,-945,-180,-7,-830,557,28,529,-193,463,24.700001,49.200001,980.179993
16/06/2023,19:47:48.208,-928,-186,0,-875,520,12,541,-190,453,24.700001,49.200001,980.179993
16/06/2023,19:47:48.217,-902,-164,-24,-877,534,-1,555,-190,445,24.700001,49.200001,980.179993
16/06/2023,19:47:48.227,-907,-154,-25,-798,508,2,535,-208,465,24.700001,49.200001,980.179993
16/06/2023,19:47:48.236,-924,-126,-22,-710,436,11,526,-208,439,24.700001,49.200001,980.179993
16/06/2023,19:47:48.246,-924,-65,-21,-607,371,13,547,-187,451,24.700001,49.200001,980.179993
16/06/2023,19:47:48.258,-913,-16,-42,-499,389,12,532,-202,457,24.700001,49.200001,980.179993
16/06/2023,19:47:48.264,-910,11,-88,-384,445,7,528,-211,474,24.700001,49.200001,980.179993
16/06/2023,19:47:48.273,-915,24,-117,-232,499,1,528,-211,474,24.700001,49.200001,980.179993
16/06/2023,19:47:48.282,-939,27,-112,-84,532,-7,543,-199,465,24.700001,49.200001,980.179993
16/06/2023,19:47:48.292,-965,26,-102,42,526,-26,538,-214,465,24.700001,49.200001,980.179993
16/06/2023,19:47:48.302,-974,6,-120,148,546,-40,544,-202,453,24.700001,49.200001,980.179993
16/06/2023,19:47:48.311,-978,-24,-144,268,547,-44,526,-208,487,24.700001,49.200001,980.179993
16/06/2023,19:47:48.321,-974,-36,-136,367,523,-61,523,-202,474,24.700001,49.200001,980.179993
16/06/2023,19:47:48.330,-963,-36,-108,385,504,-92,531,-205,466,24.700001,49.200001,980.179993
16/06/2023,19:47:48.339,-958,-36,-70,357,481,-129,523,-205,489,24.700001,49.200001,980.179993
16/06/2023,19:47:48.349,-965,-56,-21,297,398,-170,532,-199,492,24.700001,49.200001,980.179993
16/06/2023,19:47:48.358,-970,-105,-6,236,302,-207,517,-190,502,24.700001,49.200001,980.179993
16/06/2023,19:47:48.367,-975,-171,-27,215,253,-231,517,-190,502,24.700001,49.200001,980.179993
16/06/2023,19:47:48.376,-983,-238,-55,218,235,-239,519,-210,502,24.700001,49.200001,980.179993
16/06/2023,19:47:48.386,-979,-286,-82,231,219,-232,523,-193,499,24.700001,49.200001,980.179993
16/06/2023,19:47:48.395,-966,-309,-109,248,195,-218,520,-196,496,24.700001,49.200001,980.179993
16/06/2023,19:47:48.405,-940,-316,-136,251,166,-197,522,-190,507,24.700001,49.200001,980.179993
16/06/2023,19:47:48.414,-921,-314,-161,211,148,-181,523,-183,522,24.700001,49.200001,980.179993
16/06/2023,19:47:48.424,-911,-301,-176,105,173,-172,526,-199,502,24.700001,49.200001,980.179993
16/06/2023,19:47:48.433,-900,-280,-182,-48,251,-177,519,-207,526,24.700001,49.200001,980.179993
16/06/2023,19:47:48.442,-896,-256,-166,-48,251,-177,532,-193,514,24.700001,49.200001,980.179993
16/06/2023,19:47:48.452,-904,-231,-127,-191,357,-188,502,-190,526,24.700001,49.200001,980.179993
16/06/2023,19:47:48.460,-910,-225,-86,-314,452,-212,502,-190,526,24.700001,49.200001,980.179993
16/06/2023,19:47:48.470,-897,-250,-55,-413,527,-238,498,-171,535,24.700001,49.200001,980.179993
16/06/2023,19:47:48.480,-894,-289,-60,-506,562,-232,519,-177,528,24.700001,49.200001,980.179993
16/06/2023,19:47:48.489,-935,-349,-89,-590,547,-209,508,-183,535,24.700001,49.200001,980.179993
16/06/2023,19:47:48.499,-984,-397,-132,-671,493,-196,531,-189,508,24.700001,49.200001,980.179993
16/06/2023,19:47:48.508,-1039,-425,-162,-756,450,-201,501,-198,525,24.700001,49.200001,980.179993
16/06/2023,19:47:48.517,-1123,-461,-184,-815,467,-212,504,-198,532,24.700001,49.200001,980.179993
16/06/2023,19:47:48.527,-1123,-461,-184,-860,482,-191,504,-207,523,24.700001,49.200001,980.179993
16/06/2023,19:47:48.536,-1187,-497,-229,-891,464,-161,517,-192,525,24.700001,49.200001,980.179993
16/06/2023,19:47:48.545,-1194,-508,-253,-942,420,-154,495,-199,531,24.700001,49.200001,980.179993
16/06/2023,19:47:48.554,-1180,-483,-235,-997,380,-145,495,-199,531,24.700001,49.200001,980.179993
16/06/2023,19:47:48.564,-1185,-433,-174,-978,359,-119,498,-217,534,24.700001,49.200001,980.179993
16/06/2023,19:47:48.574,-1218,-378,-54,-890,352,-87,504,-231,525,24.700001,49.200001,980.179993
16/06/2023,19:47:48.583,-1255,-352,87,-772,224,-44,487,-222,526,24.700001,49.200001,980.179993
16/06/2023,19:47:48.592,-1318,-326,163,-634,53,14,496,-207,522,24.700001,49.200001,980.179993
16/06/2023,19:47:48.602,-1379,-284,190,-477,-152,58,498,-234,511,24.700001,49.200001,980.179993
16/06/2023,19:47:48.611,-1345,-241,228,-316,-392,95,493,-226,522,24.700001,49.200001,980.179993
16/06/2023,19:47:48.620,-1263,-198,289,-164,-614,126,507,-225,502,24.700001,49.200001,980.179993
16/06/2023,19:47:48.630,-1204,-171,398,-10,-854,158,499,-229,508,24.700001,49.200001,980.179993
16/06/2023,19:47:48.639,-1165,-150,506,117,-1092,184,498,-220,505,24.700001,49.200001,980.179993
16/06/2023,19:47:48.648,-1130,-117,517,103,-1324,207,498,-220,505,24.700001,49.200001,980.179993
16/06/2023,19:47:48.658,-1099,-90,374,-90,-1350,219,492,-261,514,24.700001,49.200001,980.179993
16/06/2023,19:47:48.667,-1068,-71,140,-498,-1078,168,492,-261,514,24.700001,49.200001,980.179993
16/06/2023,19:47:48.677,-1040,-60,-63,-983,-844,106,517,-259,504,24.700001,49.200001,980.179993
16/06/2023,19:47:48.686,-1042,-64,-232,-1260,-765,91,531,-247,477,24.700001,49.200001,980.179993
16/06/2023,19:47:48.695,-1030,-78,-362,-1302,-685,48,535,-262,471,24.700001,49.200001,980.179993
16/06/2023,19:47:48.705,-975,-126,-446,-1175,-644,23,522,-268,469,24.700001,49.200001,980.179993
16/06/2023,19:47:48.714,-996,-172,-495,-830,-771,80,531,-271,450,24.700001,49.200001,980.179993
16/06/2023,19:47:48.723,-1070,-161,-499,-352,-910,117,531,-262,436,24.700001,49.200001,980.179993
16/06/2023,19:47:48.732,-1076,-113,-486,126,-977,141,531,-262,436,24.700001,49.200001,980.179993
16/06/2023,19:47:48.742,-1042,-56,-469,547,-948,188,538,-273,423,24.700001,49.200001,980.179993
16/06/2023,19:47:48.752,-1034,-30,-429,880,-853,239,529,-276,433,24.700001,49.200001,980.179993
16/06/2023,19:47:48.761,-1036,-46,-349,1121,-823,294,543,-256,445,24.700001,49.200001,980.179993
16/06/2023,19:47:48.770,-1014,-74,-272,1267,-804,364,550,-264,423,24.700001,49.200001,980.179993
16/06/2023,19:47:48.780,-991,-97,-235,1321,-711,398,528,-261,438,24.700001,49.200001,980.179993
16/06/2023,19:47:48.789,-971,-127,-203,1281,-569,433,549,-255,433,24.700001,49.200001,980.179993
16/06/2023,19:47:48.798,-938,-172,-156,1281,-569,433,538,-249,438,24.700001,49.200001,980.179993
16/06/2023,19:47:48.816,-860,-333,-15,784,-262,488,532,-237,453,24.700001,49.200001,980.179993
16/06/2023,19:47:48.826,-852,-437,-16,301,-142,504,531,-273,451,24.700001,49.200001,980.179993
16/06/2023,19:47:48.836,-875,-501,-27,-109,-98,529,538,-270,448,24.700001,49.200001,980.179993
16/06/2023,19:47:48.845,-887,-511,-32,-271,-187,562,526,-271,444,24.700001,49.200001,980.179993
16/06/2023,19:47:48.855,-892,-449,-86,-426,-226,607,529,-271,438,24.700001,49.200001,980.179993
16/06/2023,19:47:48.864,-889,-297,-181,-594,-196,618,514,-282,460,24.700001,49.200001,980.179993
16/06/2023,19:47:48.873,-889,-297,-181,-609,-218,580,525,-288,435,24.700001,49.200001,980.179993
16/06/2023,19:47:48.883,-834,-120,-266,-539,-207,528,520,-276,414,24.700001,49.200001,980.179993
16/06/2023,19:47:48.892,-786,27,-302,-488,-112,479,519,-288,432,24.700001,49.200001,980.179993
16/06/2023,19:47:48.901,-762,113,-276,-540,-33,432,511,-289,442,24.700001,49.200001,980.179993
16/06/2023,19:47:48.910,-742,156,-258,-601,6,380,511,-289,442,24.700001,49.200001,980.179993
16/06/2023,19:47:48.920,-738,178,-263,-565,47,331,519,-282,436,24.700001,49.200001,980.179993
16/06/2023,19:47:48.930,-748,167,-222,-548,109,269,511,-312,427,24.700001,49.200001,980.179993
16/06/2023,19:47:48.939,-747,124,-157,-637,176,202,532,-310,430,24.700001,49.200001,980.179993
16/06/2023,19:47:48.948,-744,88,-134,-729,205,137,493,-282,442,24.700001,49.200001,980.179993
16/06/2023,19:47:48.958,-738,81,-142,-761,226,80,492,-312,436,24.700001,49.200001,980.179993
16/06/2023,19:47:48.967,-721,88,-143,-740,242,29,508,-310,423,24.700001,49.200001,980.179993
16/06/2023,19:47:48.976,-716,99,-127,-704,274,-21,489,-307,445,24.700001,49.200001,980.179993
16/06/2023,19:47:48.986,-724,105,-92,-680,297,-70,522,-295,415,24.700001,49.200001,980.179993
16/06/2023,19:47:48.995,-739,96,-47,-688,336,-114,510,-310,426,24.700001,49.200001,980.179993
16/06/2023,19:47:49.004,-770,78,1,-683,339,-160,510,-310,426,24.700001,49.200001,980.179993
16/06/2023,19:47:49.014,-817,56,55,-654,338,-211,517,-300,451,24.700001,49.200001,980.179993
16/06/2023,19:47:49.023,-875,3,135,-634,332,-261,526,-322,424,24.700001,49.200001,980.179993
16/06/2023,19:47:49.033,-941,-95,239,-669,285,-301,502,-318,429,24.700001,49.200001,980.179993
16/06/2023,19:47:49.042,-1038,-229,363,-708,158,-317,517,-298,429,24.700001,49.200001,980.179993
16/06/2023,19:47:49.051,-1163,-389,547,-662,-27,-268,523,-313,409,24.700001,49.200001,980.179993
16/06/2023,19:47:49.061,-1286,-613,762,-510,-209,-128,513,-315,435,24.700001,49.200001,980.179993
16/06/2023,19:47:49.070,-1370,-883,896,-467,-250,42,516,-289,424,24.700001,49.200001,980.179993
16/06/2023,19:47:49.079,-1349,-1093,869,-584,-91,225,498,-322,399,24.700001,49.200001,980.179993
16/06/2023,19:47:49.088,-1284,-1131,721,-811,200,345,498,-322,399,24.700001,49.200001,980.179993
16/06/2023,19:47:49.098,-1229,-959,526,-1150,254,390,513,-313,411,24.700001,49.200001,980.179993
16/06/2023,19:47:49.108,-1114,-685,281,-1430,65,338,517,-315,405,24.700001,49.200001,980.179993
16/06/2023,19:47:49.117,-967,-452,-2,-1394,-119,317,511,-318,409,24.700001,49.200001,980.179993
16/06/2023,19:47:49.126,-847,-282,-232,-1091,-150,334,502,-336,409,24.700001,49.200001,980.179993
16/06/2023,19:47:49.136,-758,-148,-314,-700,-98,348,517,-313,379,24.700001,49.200001,980.179993
16/06/2023,19:47:49.145,-767,-41,-303,-700,-98,348,501,-316,367,24.700001,49.200001,980.179993
16/06/2023,19:47:49.154,-992,48,-316,-375,-69,312,492,-325,384,24.700001,49.200001,980.179993
16/06/2023,19:47:49.164,-1257,37,-340,-47,-54,174,498,-336,385,24.700001,49.200001,980.179993
16/06/2023,19:47:49.173,-1373,-58,-308,265,13,54,492,-321,381,24.700001,49.200001,980.179993
16/06/2023,19:47:49.182,-1393,-100,-238,448,83,4,492,-321,381,24.700001,49.200001,980.179993
16/06/2023,19:47:49.192,-1256,-50,-164,463,164,-18,484,-327,384,24.700001,49.500000,980.210022
16/06/2023,19:47:49.201,-1011,22,-146,314,202,-23,487,-324,399,24.700001,49.500000,980.210022
16/06/2023,19:47:49.211,-849,57,-217,72,200,-63,510,-325,403,24.700001,49.500000,980.210022
16/06/2023,19:47:49.220,-849,57,-217,-77,202,-103,490,-318,399,24.700001,49.500000,980.210022
16/06/2023,19:47:49.229,-853,80,-356,-14,189,-141,493,-318,411,24.700001,49.500000,980.210022
16/06/2023,19:47:49.239,-955,139,-477,196,168,-248,504,-328,421,24.700001,49.500000,980.210022
16/06/2023,19:47:49.248,-1034,184,-462,369,229,-342,498,-312,415,24.700001,49.500000,980.210022
16/06/2023,19:47:49.257,-1035,153,-307,496,261,-312,507,-318,409,24.700001,49.500000,980.210022
16/06/2023,19:47:49.266,-1039,124,15,568,30,-229,507,-318,409,24.700001,49.500000,980.210022
16/06/2023,19:47:49.276,-1015,90,254,422,-117,-301,486,-318,426,24.700001,49.500000,980.210022
16/06/2023,19:47:49.286,-990,2,239,193,326,-371,501,-306,420,24.700001,49.500000,980.210022
16/06/2023,19:47:49.295,-1010,-40,148,-27,531,-407,502,-313,420,24.700001,49.500000,980.210022
16/06/2023,19:47:49.304,-970,-25,32,-247,471,-433,508,-307,414,24.700001,49.500000,980.210022
16/06/2023,19:47:49.314,-898,-26,-71,-424,393,-443,496,-303,448,24.700001,49.500000,980.210022
16/06/2023,19:47:49.323,-837,-53,-139,-525,325,-443,520,-295,433,24.700001,49.500000,980.210022
16/06/2023,19:47:49.332,-811,-77,-186,-548,295,-446,517,-286,411,24.700001,49.500000,980.210022
16/06/2023,19:47:49.342,-822,-91,-214,-494,271,-445,531,-298,420,24.700001,49.500000,980.210022
16/06/2023,19:47:49.351,-858,-116,-229,-415,319,-429,517,-294,432,24.700001,49.500000,980.210022
16/06/2023,19:47:49.360,-909,-151,-224,-316,421,-388,517,-294,432,24.700001,49.500000,980.210022
16/06/2023,19:47:49.369,-964,-202,-191,-177,484,-338,507,-295,423,24.700001,49.500000,980.210022
16/06/2023,19:47:49.379,-999,-280,-144,-27,490,-292,514,-292,444,24.700001,49.500000,980.210022
16/06/2023,19:47:49.389,-1006,-376,-101,9,459,-255,525,-288,432,24.700001,49.500000,980.210022
16/06/2023,19:47:49.398,-983,-449,-82,-80,390,-232,523,-288,441,24.700001,49.500000,980.210022
16/06/2023,19:47:49.407,-971,-492,-50,-350,334,-227,529,-268,444,24.700001,49.500000,980.210022
16/06/2023,19:47:49.417,-975,-484,-67,-681,311,-243,511,-283,450,24.700001,49.500000,980.210022
16/06/2023,19:47:49.426,-951,-389,-121,-639,340,-218,508,-267,441,24.700001,49.500000,980.210022
16/06/2023,19:47:49.435,-930,-275,-126,-340,351,-147,514,-271,427,24.700001,49.500000,980.210022
16/06/2023,19:47:49.445,-957,-243,-91,-188,403,-74,501,-285,435,24.700001,49.500000,980.210022
16/06/2023,19:47:49.454,-957,-249,-51,-324,493,-66,501,-285,435,24.700001,49.500000,980.210022
16/06/2023,19:47:49.464,-919,-233,-45,-460,525,-65,505,-288,451,24.700001,49.500000,980.210022
16/06/2023,19:47:49.473,-902,-224,-57,-494,474,-59,507,-282,466,24.700001,49.500000,980.210022
16/06/2023,19:47:49.482,-889,-215,-95,-456,446,-48,495,-288,445,24.700001,49.500000,980.210022
16/06/2023,19:47:49.492,-891,-190,-122,-456,446,-48,505,-282,450,24.700001,49.500000,980.210022
16/06/2023,19:47:49.501,-900,-161,-127,-323,427,-29,501,-282,454,24.700001,49.500000,980.210022
16/06/2023,19:47:49.520,-894,-103,-144,-18,357,0,516,-282,450,24.700001,49.500000,980.210022
16/06/2023,19:47:49.529,-904,-81,-156,52,338,2,517,-277,454,24.700001,49.500000,980.210022
16/06/2023,19:47:49.538,-926,-57,-160,105,333,-1,517,-277,454,24.700001,49.500000,980.210022
16/06/2023,19:47:49.547,-926,-57,-160,170,330,-10,520,-292,469,24.700001,49.500000,980.210022
16/06/2023,19:47:49.557,-938,-28,-173,247,338,-17,519,-282,459,24.700001,49.500000,980.210022
16/06/2023,19:47:49.567,-938,-28,-173,326,353,-24,501,-279,468,24.700001,49.500000,980.210022
16/06/2023,19:47:49.576,-941,-40,-186,410,370,-28,490,-285,481,24.700001,49.500000,980.210022
16/06/2023,19:47:49.585,-954,-65,-196,476,384,-28,498,-265,465,24.700001,49.500000,980.210022
16/06/2023,19:47:49.595,-962,-81,-197,524,392,-31,501,-279,481,24.700001,49.500000,980.210022
16/06/2023,19:47:49.604,-966,-81,-195,571,397,-36,487,-277,489,24.700001,49.500000,980.210022
16/06/2023,19:47:49.613,-968,-76,-179,631,411,-45,495,-265,490,24.700001,49.500000,980.210022
16/06/2023,19:47:49.623,-977,-73,-142,676,414,-64,493,-270,481,24.700001,49.500000,980.210022
16/06/2023,19:47:49.632,-991,-69,-90,697,386,-92,493,-270,481,24.700001,49.500000,980.210022
16/06/2023,19:47:49.641,-998,-77,-37,682,333,-127,484,-246,505,24.700001,49.500000,980.210022
16/06/2023,19:47:49.651,-1002,-97,-5,636,256,-155,490,-274,513,24.700001,49.500000,980.210022
16/06/2023,19:47:49.660,-992,-138,-1,564,182,-175,478,-255,505,24.700001,49.500000,980.210022
16/06/2023,19:47:49.670,-972,-192,-16,437,135,-183,469,-237,529,24.700001,49.500000,980.210022
16/06/2023,19:47:49.679,-964,-232,-41,269,126,-190,480,-255,519,24.700001,49.500000,980.210022
16/06/2023,19:47:49.688,-964,-264,-52,115,141,-202,493,-232,516,24.700001,49.500000,980.210022
16/06/2023,19:47:49.698,-966,-291,-36,2,148,-212,502,-231,534,24.700001,49.500000,980.210022
16/06/2023,19:47:49.707,-972,-312,-6,-49,164,-222,465,-255,525,24.700001,49.500000,980.210022
16/06/2023,19:47:49.717,-977,-340,28,-68,137,-216,495,-240,516,24.700001,49.500000,980.210022
16/06/2023,19:47:49.725,-987,-371,28,-108,93,-206,495,-240,516,24.700001,49.500000,980.210022
16/06/2023,19:47:49.735,-1002,-402,-11,-167,70,-192,483,-220,537,24.700001,49.500000,980.210022
16/06/2023,19:47:49.745,-1008,-434,-39,-203,53,-163,484,-244,528,24.700001,49.500000,980.210022
16/06/2023,19:47:49.754,-1024,-460,-24,-183,16,-114,477,-232,513,24.700001,49.500000,980.210022
16/06/2023,19:47:49.763,-1098,-510,-9,-130,6,-41,474,-238,526,24.700001,49.500000,980.210022
16/06/2023,19:47:49.773,-1204,-580,-1,-112,-20,39,495,-240,538,24.700001,49.500000,980.210022
16/06/2023,19:47:49.782,-1221,-614,18,-139,-142,94,484,-238,541,24.700001,49.500000,980.210022
16/06/2023,19:47:49.791,-1157,-594,48,-102,-245,148,486,-249,531,24.700001,49.500000,980.210022
16/06/2023,19:47:49.801,-1114,-550,125,28,-323,220,487,-241,522,24.700001,49.500000,980.210022
16/06/2023,19:47:49.810,-1096,-510,244,175,-462,297,478,-241,537,24.700001,49.500000,980.210022
16/06/2023,19:47:49.822,-1081,-486,329,171,-645,368,478,-241,537,24.700001,49.500000,980.210022
16/06/2023,19:47:49.829,-1073,-468,321,-72,-773,410,484,-252,541,24.700001,49.500000,980.210022
16/06/2023,19:47:49.838,-1052,-438,264,-72,-773,410,493,-234,537,24.700001,49.500000,980.210022
16/06/2023,19:47:49.848,-1037,-398,224,-433,-821,422,505,-244,531,24.700001,49.500000,980.210022
16/06/2023,19:47:49.857,-1106,-320,212,-773,-788,438,496,-252,529,24.700001,49.500000,980.210022
16/06/2023,19:47:49.866,-1206,-205,230,-1089,-712,448,490,-277,522,24.700001,49.500000,980.210022
16/06/2023,19:47:49.876,-1266,-106,192,-1384,-744,400,490,-271,519,24.700001,49.500000,980.210022
16/06/2023,19:47:49.885,-1311,-13,67,-1578,-868,328,504,-285,484,24.700001,49.500000,980.210022
16/06/2023,19:47:49.895,-1330,81,-144,-1660,-981,242,505,-292,489,24.700001,49.500000,980.210022
16/06/2023,19:47:49.903,-1330,81,-144,-1636,-1050,134,505,-292,489,24.700001,49.500000,980.210022
16/06/2023,19:47:49.913,-1287,137,-412,-1466,-1033,33,508,-306,465,24.700001,49.500000,980.210022
16/06/2023,19:47:49.923,-1211,117,-587,-1076,-1005,6,513,-301,472,24.700001,49.500000,980.210022
16/06/2023,19:47:49.932,-1161,43,-630,-558,-1078,42,513,-301,472,24.700001,49.500000,980.210022
16/06/2023,19:47:49.941,-1136,12,-639,32,-1204,84,505,-322,460,24.700001,49.500000,980.210022
16/06/2023,19:47:49.951,-1106,34,-663,680,-1269,129,535,-328,456,24.700001,49.500000,980.210022
16/06/2023,19:47:49.960,-1086,68,-645,1314,-1187,227,532,-334,450,24.700001,49.500000,980.210022
16/06/2023,19:47:49.969,-1104,62,-497,1787,-1095,300,537,-319,471,24.700001,49.500000,980.210022
16/06/2023,19:47:49.979,-1123,-5,-301,2051,-1019,353,519,-318,459,24.700001,49.500000,980.210022
16/06/2023,19:47:49.988,-1118,-93,-170,2123,-912,402,519,-318,459,24.700001,49.500000,980.210022
16/06/2023,19:47:49.997,-1095,-200,-57,2067,-763,448,531,-306,480,24.700001,49.500000,980.210022
16/06/2023,19:47:50.007,-1052,-321,64,1802,-652,459,544,-327,483,24.700001,49.500000,980.210022
16/06/2023,19:47:50.016,-993,-385,131,1369,-560,453,537,-325,496,24.700001,49.500000,980.210022
16/06/2023,19:47:50.026,-914,-364,110,964,-416,440,547,-307,489,24.700001,49.500000,980.210022
16/06/2023,19:47:50.035,-824,-316,53,699,-271,449,535,-324,504,24.700001,49.500000,980.210022
16/06/2023,19:47:50.044,-780,-310,11,408,-169,464,534,-315,510,24.700001,49.500000,980.210022
16/06/2023,19:47:50.054,-772,-360,-35,190,-124,486,546,-325,507,24.700001,49.500000,980.210022
16/06/2023,19:47:50.063,-771,-391,-77,-86,-31,503,543,-348,496,24.700001,49.500000,980.210022
16/06/2023,19:47:50.073,-782,-357,-143,-218,14,469,544,-345,496,24.700001,49.500000,980.210022
16/06/2023,19:47:50.081,-783,-281,-244,-74,40,459,544,-345,496,24.700001,49.500000,980.210022
16/06/2023,19:47:50.091,-783,-174,-280,129,121,443,535,-361,499,24.700001,49.500000,980.210022
16/06/2023,19:47:50.101,-785,-56,-265,286,182,398,531,-357,478,24.700001,49.500000,980.210022
16/06/2023,19:47:50.110,-752,9,-209,305,256,354,534,-363,475,24.700001,49.500000,980.210022
16/06/2023,19:47:50.119,-710,26,-134,104,362,302,538,-369,513,24.700001,49.500000,980.210022
16/06/2023,19:47:50.129,-689,10,-83,-202,415,230,523,-375,508,24.700001,49.500000,980.210022
16/06/2023,19:47:50.138,-679,-37,-50,-600,449,133,510,-375,501,24.700001,49.500000,980.210022
16/06/2023,19:47:50.147,-678,-68,-53,-986,460,16,514,-382,493,24.700001,49.500000,980.210022
16/06/2023,19:47:50.157,-679,-69,-89,-1189,454,-81,501,-381,483,24.700001,49.500000,980.210022
16/06/2023,19:47:50.166,-682,-61,-118,-1239,452,-150,502,-396,490,24.700001,49.500000,980.210022
16/06/2023,19:47:50.175,-682,-36,-134,-1228,451,-206,502,-396,490,24.700001,49.500000,980.210022
16/06/2023,19:47:50.184,-671,-25,-132,-1187,450,-249,502,-417,495,24.700001,49.500000,980.210022
16/06/2023,19:47:50.194,-663,-47,-122,-1187,450,-249,490,-397,450,24.700001,49.500000,980.210022
16/06/2023,19:47:50.204,-688,-73,-99,-1122,466,-282,492,-411,474,24.700001,49.500000,980.210022
16/06/2023,19:47:50.213,-760,-70,-45,-1050,462,-309,493,-415,478,24.700001,49.500000,980.210022
16/06/2023,19:47:50.232,-979,-15,152,-934,282,-414,496,-418,451,24.700001,49.099998,980.159973
16/06/2023,19:47:50.241,-1089,-68,350,-972,168,-484,496,-418,451,24.700001,49.099998,980.159973
16/06/2023,19:47:50.251,-1232,-289,779,-1082,48,-518,493,-406,451,24.700001,49.099998,980.159973
16/06/2023,19:47:50.259,-1232,-289,779,-1226,-57,-473,493,-406,451,24.700001,49.099998,980.159973
16/06/2023,19:47:50.269,-1401,-746,1241,-1238,-240,-287,484,-432,427,24.700001,49.099998,980.159973
16/06/2023,19:47:50.279,-1346,-1208,1145,-1032,-121,50,475,-420,409,24.700001,49.099998,980.159973
16/06/2023,19:47:50.288,-1133,-1324,698,-810,69,220,472,-430,403,24.700001,49.099998,980.159973
16/06/2023,19:47:50.297,-991,-1125,442,-666,205,275,489,-435,393,24.700001,49.099998,980.159973
16/06/2023,19:47:50.307,-904,-830,319,-684,309,338,478,-426,379,24.700001,49.099998,980.159973
16/06/2023,19:47:50.316,-847,-574,164,-863,272,384,478,-450,363,24.700001,49.099998,980.159973
16/06/2023,19:47:50.325,-772,-409,-80,-787,99,397,459,-435,378,24.700001,49.099998,980.159973
16/06/2023,19:47:50.335,-782,-254,-427,-543,67,358,457,-456,351,24.700001,49.099998,980.159973
16/06/2023,19:47:50.344,-984,-98,-777,-436,172,192,457,-456,351,24.700001,49.099998,980.159973
16/06/2023,19:47:50.353,-1263,-54,-919,-448,249,58,441,-456,357,24.700001,49.099998,980.159973
16/06/2023,19:47:50.363,-1443,-88,-888,-477,331,13,444,-453,352,24.700001,49.099998,980.159973
16/06/2023,19:47:50.372,-1388,-81,-736,-473,482,56,439,-442,339,24.700001,49.099998,980.159973
16/06/2023,19:47:50.382,-1172,18,-477,-434,459,90,439,-447,336,24.700001,49.099998,980.159973
16/06/2023,19:47:50.391,-1007,218,-174,-324,313,38,439,-433,345,24.700001,49.099998,980.159973
16/06/2023,19:47:50.400,-947,427,151,-246,1,-96,435,-447,324,24.700001,49.099998,980.159973
16/06/2023,19:47:50.410,-958,547,404,-186,-388,-258,436,-430,321,24.700001,49.099998,980.159973
16/06/2023,19:47:50.419,-1041,575,541,-209,-343,-350,432,-438,334,24.700001,49.099998,980.159973
16/06/2023,19:47:50.429,-1174,460,398,-325,36,-452,444,-433,331,24.700001,49.099998,980.159973
16/06/2023,19:47:50.437,-1228,195,-19,-239,64,-481,444,-433,331,24.700001,49.099998,980.159973
16/06/2023,19:47:50.447,-1228,-48,-335,-115,-123,-451,451,-424,328,24.700001,49.099998,980.159973
16/06/2023,19:47:50.457,-1221,-194,-404,-261,-230,-431,438,-420,328,24.700001,49.099998,980.159973
16/06/2023,19:47:50.466,-1129,-286,-340,-757,-249,-424,454,-418,306,24.700001,49.099998,980.159973
16/06/2023,19:47:50.475,-942,-289,-286,-1370,-109,-472,448,-412,303,24.700001,49.099998,980.159973
16/06/2023,19:47:50.485,-799,-204,-156,-1628,175,-500,466,-411,300,24.700001,49.099998,980.159973
16/06/2023,19:47:50.494,-788,-176,35,-1590,269,-504,453,-406,288,24.700001,49.099998,980.159973
16/06/2023,19:47:50.503,-841,-236,118,-1451,289,-441,457,-396,261,24.700001,49.099998,980.159973
16/06/2023,19:47:50.513,-881,-271,112,-1451,289,-441,454,-381,258,24.700001,49.099998,980.159973
16/06/2023,19:47:50.522,-885,-264,86,-1324,313,-375,462,-391,253,24.700001,49.099998,980.159973
16/06/2023,19:47:50.531,-883,-280,45,-1399,322,-297,462,-391,253,24.700001,49.099998,980.159973
16/06/2023,19:47:50.540,-898,-306,-44,-1399,322,-297,471,-397,247,24.700001,49.099998,980.159973
16/06/2023,19:47:50.550,-935,-305,-129,-1527,345,-273,466,-376,234,24.700001,49.099998,980.159973
16/06/2023,19:47:50.560,-955,-311,-125,-1530,422,-239,463,-378,234,24.700001,49.099998,980.159973
16/06/2023,19:47:50.569,-982,-315,-36,-1360,481,-184,472,-388,223,24.700001,49.099998,980.159973
16/06/2023,19:47:50.578,-1006,-289,53,-1315,511,-155,465,-376,214,24.700001,49.099998,980.159973
16/06/2023,19:47:50.588,-992,-312,89,-1300,444,-158,459,-384,217,24.700001,49.099998,980.159973
16/06/2023,19:47:50.597,-975,-381,87,-1217,319,-127,468,-378,219,24.700001,49.099998,980.159973
16/06/2023,19:47:50.607,-975,-381,87,-1216,303,-107,475,-364,192,24.700001,49.099998,980.159973
16/06/2023,19:47:50.616,-954,-424,55,-1259,338,-114,453,-348,204,24.700001,49.099998,980.159973
16/06/2023,19:47:50.625,-914,-418,-20,-1294,473,-90,453,-348,204,24.700001,49.099998,980.159973
16/06/2023,19:47:50.634,-880,-376,-51,-1233,574,-60,465,-351,187,24.700001,49.099998,980.159973
16/06/2023,19:47:50.644,-865,-334,-15,-1136,579,-14,475,-340,187,24.700001,49.099998,980.159973
16/06/2023,19:47:50.653,-853,-303,-11,-1075,575,26,463,-346,175,24.700001,49.099998,980.159973
16/06/2023,19:47:50.663,-857,-259,-37,-1008,575,62,468,-343,190,24.700001,49.099998,980.159973
16/06/2023,19:47:50.672,-877,-192,-45,-925,570,88,484,-339,192,24.700001,49.099998,980.159973
16/06/2023,19:47:50.682,-895,-125,-55,-811,569,107,468,-331,186,24.700001,49.099998,980.159973
16/06/2023,19:47:50.691,-919,-54,-73,-650,575,111,466,-330,192,24.700001,49.099998,980.159973
16/06/2023,19:47:50.700,-954,20,-69,-496,585,99,465,-322,177,24.700001,49.099998,980.159973
16/06/2023,19:47:50.710,-978,70,-55,-373,592,79,474,-327,177,24.700001,49.099998,980.159973
16/06/2023,19:47:50.718,-988,99,-48,-272,578,52,474,-327,177,24.700001,49.099998,980.159973
16/06/2023,19:47:50.728,-985,121,-66,-173,577,13,448,-307,193,24.700001,49.099998,980.159973
16/06/2023,19:47:50.738,-977,136,-117,-48,595,-30,448,-307,193,24.700001,49.099998,980.159973
16/06/2023,19:47:50.747,-980,145,-138,118,619,-75,466,-310,193,24.700001,49.099998,980.159973
16/06/2023,19:47:50.756,-985,138,-85,183,591,-137,469,-309,190,24.700001,49.099998,980.159973
16/06/2023,19:47:50.766,-985,91,-14,122,490,-202,456,-315,205,24.700001,49.099998,980.159973
16/06/2023,19:47:50.775,-988,-9,7,70,358,-250,459,-300,207,24.700001,49.099998,980.159973
16/06/2023,19:47:50.785,-977,-129,-2,105,308,-262,477,-300,205,24.700001,49.099998,980.159973
16/06/2023,19:47:50.794,-963,-228,-4,194,303,-263,486,-300,204,24.700001,49.099998,980.159973
16/06/2023,19:47:50.803,-956,-296,-29,314,282,-258,463,-298,217,24.700001,49.099998,980.159973
16/06/2023,19:47:50.812,-949,-334,-82,446,237,-233,463,-298,217,24.700001,49.099998,980.159973
16/06/2023,19:47:50.822,-934,-347,-136,560,194,-198,475,-292,229,24.700001,49.099998,980.159973
16/06/2023,19:47:50.831,-923,-349,-187,607,169,-168,471,-301,240,24.700001,49.099998,980.159973
16/06/2023,19:47:50.841,-919,-349,-219,550,172,-147,472,-289,249,24.700001,49.099998,980.159973
16/06/2023,19:47:50.850,-914,-338,-238,389,202,-135,460,-285,244,24.700001,49.099998,980.159973
16/06/2023,19:47:50.860,-914,-305,-259,389,202,-135,466,-288,240,24.700001,49.099998,980.159973
16/06/2023,19:47:50.869,-917,-273,-273,-51,306,-145,489,-277,234,24.700001,49.099998,980.159973
16/06/2023,19:47:50.878,-919,-238,-270,-51,306,-145,465,-288,241,24.700001,49.099998,980.159973
16/06/2023,19:47:50.888,-924,-203,-252,-263,370,-161,471,-282,259,24.700001,49.099998,980.159973
16/06/2023,19:47:50.896,-940,-170,-208,-468,449,-184,471,-282,259,24.700001,49.099998,980.159973
16/06/2023,19:47:50.906,-983,-137,-149,-681,548,-212,478,-274,255,24.700001,49.099998,980.159973
16/06/2023,19:47:50.916,-1066,-118,-78,-824,631,-231,457,-261,264,24.700001,49.099998,980.159973
16/06/2023,19:47:50.934,-1195,-158,-8,-740,584,-269,462,-256,273,24.700001,49.099998,980.159973
16/06/2023,19:47:50.944,-1264,-224,-14,-611,527,-291,471,-264,261,24.700001,49.099998,980.159973
16/06/2023,19:47:50.953,-1264,-224,-14,-499,462,-316,475,-250,268,24.700001,49.099998,980.159973
16/06/2023,19:47:50.963,-1349,-347,-13,-478,325,-327,468,-255,268,24.700001,49.099998,980.159973
16/06/2023,19:47:50.972,-1309,-513,-53,-569,133,-348,478,-253,292,24.700001,49.099998,980.159973
16/06/2023,19:47:50.981,-1157,-655,-83,-720,-33,-355,454,-240,276,24.700001,49.099998,980.159973
16/06/2023,19:47:50.990,-1067,-742,-85,-844,-22,-315,454,-240,276,24.700001,49.099998,980.159973
16/06/2023,19:47:50.999,-1086,-745,-33,-851,106,-230,484,-249,261,24.700001,49.099998,980.159973
16/06/2023,19:47:51.009,-1143,-660,95,-731,136,-112,486,-234,265,24.700001,49.099998,980.159973
16/06/2023,19:47:51.019,-1192,-543,223,-592,-24,-13,469,-252,264,24.700001,49.099998,980.159973
16/06/2023,19:47:51.028,-1209,-445,295,-557,-255,46,477,-229,274,24.700001,49.099998,980.159973
16/06/2023,19:47:51.038,-1188,-369,318,-632,-464,76,484,-229,258,24.700001,49.099998,980.159973
16/06/2023,19:47:51.047,-1164,-304,303,-708,-646,91,475,-235,264,24.700001,49.099998,980.159973
16/06/2023,19:47:51.056,-1133,-261,276,-731,-849,101,459,-246,273,24.700001,49.099998,980.159973
16/06/2023,19:47:51.066,-1072,-243,244,-704,-1005,119,463,-238,262,24.700001,49.099998,980.159973
16/06/2023,19:47:51.075,-1004,-236,208,-662,-1003,152,477,-237,244,24.700001,49.099998,980.159973
16/06/2023,19:47:51.084,-971,-203,169,-705,-897,192,477,-237,244,24.700001,49.099998,980.159973
16/06/2023,19:47:51.093,-956,-118,82,-893,-756,174,453,-241,231,24.700001,49.099998,980.159973
16/06/2023,19:47:51.103,-940,-40,-44,-1155,-678,126,456,-229,243,24.700001,49.099998,980.159973
16/06/2023,19:47:51.112,-945,-23,-176,-1342,-682,135,459,-238,256,24.700001,49.099998,980.159973
16/06/2023,19:47:51.122,-948,-69,-313,-1372,-651,157,444,-241,247,24.700001,49.099998,980.159973
16/06/2023,19:47:51.131,-998,-109,-385,-1279,-669,167,465,-229,256,24.700001,49.099998,980.159973
16/06/2023,19:47:51.141,-1058,-105,-414,-1047,-764,153,457,-246,234,24.700001,49.099998,980.159973
16/06/2023,19:47:51.150,-1048,-95,-434,-728,-779,149,445,-244,220,24.700001,49.099998,980.159973
16/06/2023,19:47:51.159,-1021,-95,-414,-356,-779,156,466,-246,237,24.700001,49.099998,980.159973
16/06/2023,19:47:51.169,-994,-92,-387,25,-795,188,453,-253,219,24.700001,49.099998,980.159973
16/06/2023,19:47:51.177,-1007,-98,-356,358,-830,266,453,-253,219,24.700001,49.099998,980.159973
16/06/2023,19:47:51.187,-1056,-117,-320,592,-829,329,448,-249,216,24.700001,49.099998,980.159973
16/06/2023,19:47:51.197,-1076,-151,-291,716,-741,366,453,-253,231,24.700001,49.099998,980.159973
16/06/2023,19:47:51.206,-1062,-200,-254,741,-642,391,457,-276,211,24.700001,49.099998,980.159973
16/06/2023,19:47:51.216,-1020,-234,-222,722,-567,422,450,-259,226,24.700001,49.099998,980.159973
16/06/2023,19:47:51.225,-962,-249,-203,655,-455,467,456,-268,237,24.700001,49.099998,980.159973
16/06/2023,19:47:51.234,-904,-253,-183,658,-465,464,447,-267,238,24.700001,49.099998,980.159973
16/06/2023,19:47:51.244,-865,-249,-151,565,-321,512,447,-280,217,24.700001,49.099998,980.159973
16/06/2023,19:47:51.253,-840,-261,-116,426,-163,553,442,-258,222,24.700001,49.099998,980.159973
16/06/2023,19:47:51.262,-828,-272,-109,223,-46,593,447,-286,241,24.700001,49.099998,980.159973
16/06/2023,19:47:51.271,-840,-294,-96,81,-3,621,447,-286,241,24.700001,49.099998,980.159973
16/06/2023,19:47:51.281,-884,-345,-96,-137,54,631,445,-298,241,24.700001,49.000000,980.260010
16/06/2023,19:47:51.290,-928,-350,-171,-462,96,650,454,-286,238,24.700001,49.000000,980.260010
16/06/2023,19:47:51.300,-928,-350,-171,-579,48,641,439,-307,216,24.700001,49.000000,980.260010
16/06/2023,19:47:51.309,-915,-306,-253,-525,60,625,426,-321,213,24.700001,49.000000,980.260010
16/06/2023,19:47:51.319,-900,-220,-260,-403,74,589,414,-303,240,24.700001,49.000000,980.260010
16/06/2023,19:47:51.328,-887,-98,-212,-343,61,520,424,-301,228,24.700001,49.000000,980.260010
16/06/2023,19:47:51.337,-858,5,-147,-435,84,450,436,-318,217,24.700001,49.000000,980.260010
16/06/2023,19:47:51.347,-831,83,-99,-623,125,377,432,-325,213,24.700001,49.000000,980.260010
16/06/2023,19:47:51.356,-809,135,-83,-810,179,311,424,-325,204,24.700001,49.000000,980.260010
16/06/2023,19:47:51.365,-798,161,-84,-951,207,240,424,-325,204,24.700001,49.000000,980.260010
16/06/2023,19:47:51.377,-788,168,-102,-1001,218,168,423,-324,204,24.700001,49.000000,980.260010
16/06/2023,19:47:51.384,-780,157,-118,-956,232,105,438,-322,193,24.700001,49.000000,980.260010
16/06/2023,19:47:51.394,-773,146,-119,-892,244,46,424,-313,205,24.700001,49.000000,980.260010
16/06/2023,19:47:51.403,-764,145,-110,-854,265,-17,438,-324,195,24.700001,49.000000,980.260010
16/06/2023,19:47:51.412,-752,147,-94,-843,277,-86,442,-315,175,24.700001,49.000000,980.260010
16/06/2023,19:47:51.422,-747,152,-68,-858,286,-157,429,-315,175,24.700001,49.000000,980.260010
16/06/2023,19:47:51.431,-739,152,-45,-890,294,-226,442,-307,181,24.700001,49.000000,980.260010
16/06/2023,19:47:51.440,-730,142,-40,-898,293,-285,435,-309,172,24.700001,49.000000,980.260010
16/06/2023,19:47:51.449,-752,131,-8,-851,264,-337,435,-309,172,24.700001,49.000000,980.260010
16/06/2023,19:47:51.459,-821,112,82,-779,190,-382,442,-309,159,24.700001,49.000000,980.260010
16/06/2023,19:47:51.468,-909,62,210,-746,85,-415,438,-304,174,24.700001,49.000000,980.260010
16/06/2023,19:47:51.478,-1013,-24,365,-740,-54,-428,439,-301,169,24.700001,49.000000,980.260010
16/06/2023,19:47:51.487,-1130,-172,580,-699,-311,-396,454,-283,153,24.700001,49.000000,980.260010
16/06/2023,19:47:51.497,-1264,-408,831,-529,-636,-258,456,-297,151,24.700001,49.000000,980.260010
16/06/2023,19:47:51.506,-1390,-760,989,-305,-715,6,451,-294,157,24.700001,49.000000,980.260010
16/06/2023,19:47:51.515,-1412,-1200,1017,-283,-403,337,433,-289,139,24.700001,49.000000,980.260010
16/06/2023,19:47:51.524,-1334,-1516,925,-613,17,530,444,-294,153,24.700001,49.000000,980.260010
16/06/2023,19:47:51.534,-1265,-1511,677,-1011,306,644,453,-268,147,24.700001,49.000000,980.260010
16/06/2023,19:47:51.543,-1251,-1135,396,-1446,426,685,453,-268,147,24.700001,49.000000,980.260010
16/06/2023,19:47:51.552,-1157,-634,89,-1849,214,589,451,-282,124,24.700001,49.000000,980.260010
16/06/2023,19:47:51.562,-959,-268,-250,-1697,-40,498,433,-292,106,24.700001,49.000000,980.260010
16/06/2023,19:47:51.572,-841,-54,-385,-1111,-85,505,442,-288,118,24.700001,49.000000,980.260010
16/06/2023,19:47:51.581,-832,42,-330,-1111,-87,505,436,-283,106,24.700001,49.000000,980.260010
16/06/2023,19:47:51.590,-957,118,-334,-613,-97,471,436,-283,106,24.700001,49.000000,980.260010
16/06/2023,19:47:51.600,-1131,145,-388,-223,-146,310,433,-268,105,24.700001,49.000000,980.260010
16/06/2023,19:47:51.609,-1208,80,-368,138,-107,146,439,-282,91,24.700001,49.000000,980.260010
16/06/2023,19:47:51.618,-1215,19,-274,359,14,61,426,-268,90,24.700001,49.000000,980.260010
16/06/2023,19:47:51.637,-1126,29,-194,375,248,-1,445,-274,90,24.700001,49.000000,980.260010
16/06/2023,19:47:51.646,-948,66,-236,175,246,-48,451,-268,108,24.700001,49.000000,980.260010
16/06/2023,19:47:51.656,-837,88,-385,10,211,-96,436,-268,91,24.700001,49.000000,980.260010
16/06/2023,19:47:51.665,-915,131,-538,28,217,-192,456,-252,93,24.700001,49.000000,980.260010
16/06/2023,19:47:51.675,-1066,194,-583,284,292,-332,435,-271,103,24.700001,49.000000,980.260010
16/06/2023,19:47:51.684,-1109,199,-482,612,394,-386,450,-271,102,24.700001,49.000000,980.260010
16/06/2023,19:47:51.693,-1082,168,-294,889,394,-262,453,-270,100,24.700001,49.000000,980.260010
16/06/2023,19:47:51.703,-1107,145,41,1016,120,-210,457,-253,123,24.700001,49.000000,980.260010
16/06/2023,19:47:51.712,-1105,81,300,852,14,-338,466,-246,115,24.700001,49.000000,980.260010
16/06/2023,19:47:51.721,-1072,-13,362,438,318,-469,450,-249,124,24.700001,49.000000,980.260010
16/06/2023,19:47:51.730,-1040,-65,316,-66,386,-530,450,-249,124,24.700001,49.000000,980.260010
16/06/2023,19:47:51.740,-963,-88,141,-542,311,-546,469,-244,120,24.700001,49.000000,980.260010
16/06/2023,19:47:51.750,-878,-117,-12,-913,273,-537,469,-244,120,24.700001,49.000000,980.260010
16/06/2023,19:47:51.759,-818,-132,-95,-1132,240,-519,472,-244,106,24.700001,49.000000,980.260010
16/06/2023,19:47:51.768,-801,-144,-147,-1220,199,-517,478,-238,117,24.700001,49.000000,980.260010
16/06/2023,19:47:51.778,-804,-162,-206,-1238,224,-500,493,-207,115,24.700001,49.000000,980.260010
16/06/2023,19:47:51.787,-823,-182,-277,-1197,349,-449,481,-222,118,24.700001,49.000000,980.260010
16/06/2023,19:47:51.796,-864,-211,-336,-1114,548,-378,499,-217,96,24.700001,49.000000,980.260010
16/06/2023,19:47:51.806,-930,-259,-352,-1028,687,-314,502,-223,100,24.700001,49.000000,980.260010
16/06/2023,19:47:51.815,-989,-327,-356,-902,733,-259,502,-223,100,24.700001,49.000000,980.260010
16/06/2023,19:47:51.824,-1015,-429,-301,-603,812,-184,502,-207,91,24.700001,49.000000,980.260010
16/06/2023,19:47:51.834,-1026,-506,-122,-303,657,-112,502,-187,84,24.700001,49.000000,980.260010
16/06/2023,19:47:51.843,-1018,-453,-7,-102,410,-56,507,-189,103,24.700001,49.000000,980.260010
16/06/2023,19:47:51.853,-1005,-336,-28,159,403,11,496,-175,109,24.700001,49.000000,980.260010
16/06/2023,19:47:51.862,-1002,-279,-37,438,457,83,511,-189,108,24.700001,49.000000,980.260010
16/06/2023,19:47:51.871,-956,-298,-33,473,503,100,510,-189,120,24.700001,49.000000,980.260010
16/06/2023,19:47:51.881,-876,-306,-65,272,620,74,499,-199,124,24.700001,49.000000,980.260010
16/06/2023,19:47:51.890,-851,-254,-93,159,616,64,504,-204,111,24.700001,49.000000,980.260010
16/06/2023,19:47:51.899,-873,-188,-75,173,585,54,504,-204,111,24.700001,49.000000,980.260010
16/06/2023,19:47:51.908,-883,-133,-34,235,554,41,507,-199,126,24.700001,49.000000,980.260010
