F1_accX_Mean,F2_accX_STD,F3_accX_MinMax,F4_accX_RMS,F5_accY_Mean,F6_accY_STD,F7_accY_MinMax,F8_accY_RMS,F9_accZ_Mean,F10_accZ_STD,F11_accZ_MinMax,F12_accZ_RMS,F13_acc_Magnituda_Mean,F14_acc_Magnituda_STD,F15_acc_Magnituda_MinMax,F16_acc_Magnituda_RMS,class
-0.0006153846153846154,0.0009126008090542055,0.005,0.0011006990785580142,0.02155769230769231,0.0014730066261595901,0.007000000000000003,0.02160795793576631,0.9912500000000001,0.0013850159676946812,0.007000000000000006,0.991250967600653,0.9914860865289108,0.0013915363564239779,0.006998619733146638,0.9914870630289868,Mirovanje
-0.0008076923076923078,0.0011525633895208998,0.006,0.0014073980356563067,0.022125,0.001458974218151496,0.007000000000000003,0.022173051904716023,0.9918365384615384,0.0013875169917398733,0.007000000000000006,0.9918375089856046,0.9920853495423457,0.001388687945830695,0.006998619733146638,0.9920863214613783,Mirovanje
-0.0010961538461538463,0.001069860080438548,0.006,0.0015317159809030674,0.021913461538461538,0.0014878390171078329,0.007000000000000003,0.021963912710135723,0.9917115384615385,0.0014456371826655984,0.007000000000000006,0.9917125921276866,0.9919559117196474,0.0014471366359818322,0.00699978105493404,0.9919569673125946,Mirovanje
-0.0007596153846153847,0.0009756180714305036,0.005,0.0012364651850521931,0.021317307692307687,0.0014693301919642674,0.008999999999999998,0.021367885680654942,0.9916826923076922,0.0013746637566281385,0.007000000000000006,0.9916836450819771,0.9919136446624847,0.0013743507844710052,0.006997771497864735,0.9919145967812412,Mirovanje
-0.0006153846153846154,0.00109463457467367,0.006,0.0012557559782549622,0.02109615384615384,0.0013624019426198852,0.008999999999999998,0.0211401004291334,0.9916538461538462,0.0012991804426195808,0.007000000000000006,0.9916546971912846,0.9918799490453065,0.00129842699038861,0.007040738459967333,0.991880798902151,Mirovanje
-0.000778846153846154,0.0011925790634105594,0.006,0.0014243757067031696,0.021394230769230766,0.0012816626013380582,0.006000000000000002,0.021432586620162515,0.9917211538461538,0.0012819511178820573,0.007000000000000006,0.9917219824046531,0.9919537421015062,0.0012839512523174106,0.0070604515117855815,0.9919545730526171,Mirovanje
-0.0005192307692307693,0.0011092337031861337,0.006,0.0012247448713915891,0.02172115384615384,0.0013619607667541358,0.008,0.02176381082298,0.9916634615384615,0.0012216837130266404,0.006000000000000005,0.9916642140672105,0.9919030045192532,0.0012274154778763203,0.006106914401292296,0.9919037639423881,Mirovanje
-0.000701923076923077,0.0010820191923179455,0.006,0.0012897525105467088,0.021528846153846152,0.00171507305725324,0.008999999999999998,0.02159705286162194,0.9916634615384616,0.0012058397721973764,0.006000000000000005,0.9916641946747902,0.9918994351241432,0.001217273285557959,0.0061428032735051374,0.9919001820515239,Mirovanje
-0.0010096153846153846,0.0010515116619172272,0.005,0.001457737973711325,0.021355769230769227,0.0016344739757838888,0.008,0.021418225524430932,0.9917788461538461,0.0012931530545473764,0.007000000000000006,0.9917796892067698,0.9920111520474486,0.0013005849398878605,0.0070561887258223654,0.9920120046187406,Mirovanje
-0.000875,0.0013059589756779675,0.007,0.0015719904090527544,0.021346153846153845,0.0012616322666812862,0.006000000000000002,0.021383404780343097,0.9917115384615385,0.0015296623365649458,0.008000000000000007,0.9917127181722615,0.9919432905184493,0.0015313176982252785,0.007999876214885626,0.9919444725076406,Mirovanje
-0.0007403846153846155,0.0015504043660364388,0.008,0.0017181161418609269,0.021615384615384613,0.0015523412362008126,0.008,0.021671054782465376,0.9917115384615385,0.0018010310984964933,0.009000000000000008,0.9917131738717446,0.9919497674007285,0.0018068544135016575,0.009019562506518697,0.9919514130083342,Mirovanje
-0.0008365384615384616,0.0014683230683797401,0.008,0.0016899021364473242,0.021538461538461538,0.001598816130063579,0.008,0.021597720677458965,0.9915865384615384,0.0017187348708317472,0.009000000000000008,0.9915880280175292,0.9918231541494058,0.0017220651870083665,0.009017552949449392,0.9918246491267418,Mirovanje
-0.000903846153846154,0.0011310243040409701,0.006,0.0014478100172860546,0.02183653846153846,0.0015386718606234912,0.007000000000000003,0.02189068119261991,0.9912692307692308,0.0017109981861180958,0.01100000000000001,0.991270707417815,0.9915119879952421,0.0017003303389435326,0.01102065313306333,0.9915134459307844,Mirovanje
-0.0005,0.0012633898235120647,0.007,0.001358732440973515,0.02194230769230769,0.0015739888272800308,0.007000000000000003,0.021998688772113393,0.9914134615384615,0.0016208412875078008,0.01200000000000001,0.9914147864774632,0.9916584437275641,0.001611921684791987,0.011996247691392292,0.9916597538005121,Mirovanje
-0.0005096153846153846,0.0013300895885651717,0.007,0.0014243757067031696,0.021644230769230763,0.0015622854882336842,0.007000000000000003,0.021700540581710438,0.9916346153846154,0.0013086817523730076,0.008000000000000007,0.9916354789321139,0.9918730533059521,0.001308246973407878,0.008042414667469355,0.9918739160723077,Mirovanje
-0.000826923076923077,0.001113227356800485,0.005,0.0013867504905630728,0.02160576923076923,0.0015530260116622026,0.005000000000000001,0.021661513193822677,0.991548076923077,0.0014133961261682654,0.008000000000000007,0.9915490842809859,0.9917856321416705,0.0014109027527474058,0.007982127438009523,0.9917866357081198,Mirovanje
-0.0006057692307692309,0.001113019707742179,0.005,0.0012671895007335054,0.02154807692307692,0.0015246677298318253,0.006000000000000002,0.021601949698331187,0.9916153846153848,0.001303159565084418,0.007000000000000006,0.9916162409071209,0.9918514694499779,0.0012968348734568712,0.0069373241897775495,0.9918523172482732,Mirovanje
-0.000576923076923077,0.0012379597645716216,0.007,0.0013657908388126695,0.021528846153846152,0.0016405717270866203,0.007000000000000003,0.0215912642591325,0.9916538461538462,0.0013138992963491337,0.007000000000000006,0.9916547165838908,0.9918898087278836,0.001316184547189209,0.0070056494405842384,0.9918906819806304,Mirovanje
-0.0008269230769230769,0.001318815812738456,0.007,0.0015566235649883125,0.02142307692307692,0.0014052943004957774,0.007000000000000003,0.02146911914641765,0.9917019230769231,0.002156741700647905,0.013000000000000012,0.9917042683024162,0.9919354998104336,0.0021601247422605514,0.013039430756796588,0.9919378518451026,Mirovanje
-0.0006346153846153846,0.00125619765338847,0.007,0.0014073980356563067,0.02155769230769231,0.00128472477654916,0.006000000000000002,0.021595939789335758,0.9920288461538462,0.0022380311177514216,0.013000000000000012,0.9920313706655729,0.992264886130281,0.0022364083015845733,0.013039430756796588,0.9922674063825894,Mirovanje
-0.0005673076923076924,0.0011582847321406162,0.007,0.0012897525105467088,0.021759615384615384,0.001503170958006468,0.007000000000000003,0.02181147369196737,0.9920384615384615,0.002332558338470199,0.014999999999999902,0.9920412037813752,0.9922790465078032,0.002334032501629247,0.014996650011298462,0.9922817915522555,Mirovanje
-0.000701923076923077,0.001207984714723625,0.006,0.0013971124066885516,0.02150961538461538,0.0014741046324652878,0.007000000000000003,0.02156006814603188,0.9917211538461538,0.0026181934860085316,0.015999999999999903,0.9917246099210592,0.9919564656135036,0.002619296123257928,0.015974600841675124,0.9919599237794918,Mirovanje
-0.0008076923076923077,0.0012639751327042296,0.006,0.0015,0.021249999999999998,0.0013569621047937017,0.007000000000000003,0.021293281714048828,0.9915673076923076,0.0019988670977721906,0.01200000000000001,0.9915693224146489,0.9917970576620968,0.001992840386891747,0.011975484319079688,0.9917990597898346,Mirovanje
-0.0010384615384615387,0.0012162606385263,0.006,0.0015992786835609069,0.021519230769230766,0.0015062738618012203,0.007000000000000003,0.021571883409803465,0.9918076923076923,0.0014876215081395178,0.009000000000000008,0.9918088079556773,0.9920435584637732,0.0014810452894739748,0.00891748033395201,0.9920446640069263,Mirovanje
-0.0011442307692307693,0.0014034180063657855,0.009000000000000001,0.0018107584471282066,0.021663461538461534,0.0015787688540994708,0.007000000000000003,0.02172091335379516,0.9918750000000001,0.0014120872439815422,0.007000000000000006,0.9918760051616253,0.9921144624235307,0.0014071206524204154,0.006917975978635416,0.9921154602859797,Mirovanje
-0.0008942307692307693,0.0013581539311107987,0.009000000000000001,0.0016261090889699772,0.02169230769230769,0.0016354070481130229,0.009000000000000001,0.021753867914253072,0.9915576923076924,0.0013288725924120446,0.006000000000000005,0.9915585827760874,0.9917976290602485,0.001327052144079865,0.006044743802860131,0.9917985168757427,Mirovanje
-0.0008173076923076924,0.001199073545227275,0.006,0.0014511268830702678,0.021826923076923074,0.001589885746332274,0.008,0.021884750574139696,0.9915673076923077,0.0012385197669063479,0.007000000000000006,0.9915680811802005,0.991809846813995,0.0012391348220779233,0.007021728857886433,0.9918106208809764,Mirovanje
-0.0008557692307692309,0.001188229688612184,0.006,0.0014643192169847287,0.021730769230769227,0.001475640468711606,0.007000000000000003,0.021780813716522306,0.9917788461538463,0.0013933684335867451,0.007000000000000006,0.9917798249378973,0.9920190615246436,0.0013967113282921614,0.007020019150137391,0.9920200447726695,Mirovanje
-0.0008365384615384616,0.0011103583701036219,0.006,0.0013902130439944476,0.021846153846153845,0.001536537258110629,0.008,0.021900122936079257,0.9918365384615384,0.00141496518659999,0.007000000000000006,0.9918375477636678,0.992079253095979,0.0014229572353826416,0.007022531090768003,0.9920802735821176,Mirovanje
-0.001076923076923077,0.0011741798094210575,0.006,0.001593255013631383,0.021826923076923074,0.0014239861959971843,0.006999999999999999,0.021873324111627564,0.9918750000000001,0.0014589742181514973,0.007000000000000006,0.9918760730206012,0.9921174260223224,0.001462184270762047,0.00702404896461617,0.9921185035065115,Mirovanje
-0.001096153846153846,0.0011971057305758396,0.005,0.0016231498343083997,0.02160576923076923,0.001583680409379763,0.008,0.021663732542946235,0.9916153846153846,0.0014696133211186783,0.007000000000000006,0.9916164736273952,0.9918533300649374,0.0014677640824998215,0.007019527466916253,0.9918544160774341,Mirovanje
-0.0009038461538461538,0.0013120684694935144,0.006,0.001593255013631383,0.02143269230769231,0.001769204640275284,0.008,0.021505589613293206,0.9916923076923077,0.0015816065534578544,0.008000000000000007,0.9916935689089571,0.991926738730617,0.001583809578374252,0.008048380041639436,0.9919280031643115,Mirovanje
-0.0007980769230769233,0.001281374019831144,0.006,0.0015095847620607973,0.021269230769230766,0.0014089737756934,0.007000000000000003,0.021315848203048,0.9920192307692309,0.0017208046487190984,0.009000000000000008,0.9920207232636903,0.9922493570092754,0.0017242766785224388,0.00905017783295281,0.9922508551850104,Mirovanje
-0.000951923076923077,0.0011716179451798506,0.006,0.0015095847620607973,0.021249999999999998,0.001371060790887002,0.008,0.021294184832773188,0.9918076923076923,0.0015259103403751837,0.009000000000000008,0.991808866124455,0.992037411656712,0.0015237947284188957,0.008999989549734688,0.9920385819497763,Mirovanje
-0.0011442307692307693,0.0012043053314508521,0.005,0.0016612090129226318,0.021259615384615384,0.0015190786194502922,0.008,0.021313818197447546,0.9917403846153847,0.0015565938672163738,0.008000000000000007,0.9917416061966637,0.9919707832875176,0.0015546790747756778,0.007997527394421833,0.9919720015822407,Mirovanje
-0.0008653846153846153,0.0012173244013921895,0.006,0.0014935759876113538,0.02169230769230769,0.0014079234782863942,0.006000000000000002,0.021737949800716295,0.9917692307692308,0.0025952277550518967,0.015999999999999903,0.9917726263149697,0.9920085492459444,0.0025980302958407463,0.01601853813250398,0.9920119513082801,Mirovanje
-0.0005384615384615384,0.0009992600812897372,0.005,0.0011351041971825928,0.021721153846153845,0.0013829784661627317,0.007000000000000003,0.021765136200955736,0.9918653846153845,0.002545953396711111,0.015999999999999903,0.9918686521293649,0.992104798177164,0.002549926696270074,0.01601853813250398,0.9921080751068947,Mirovanje
-0.0005384615384615385,0.0010183232534518253,0.004,0.0011519214716824567,0.02156730769230769,0.0013711619376177262,0.006000000000000002,0.021610850195072064,0.9919230769230769,0.0017688126596256814,0.009000000000000008,0.991924654008947,0.9921591379428876,0.0017663511616563888,0.008978112309250053,0.9921607102682508,Mirovanje
-0.0006538461538461539,0.001081036101735015,0.005,0.001263389823512065,0.021682692307692306,0.0014823605335677584,0.008,0.02173330482143796,0.9917211538461539,0.002505596546384603,0.014000000000000012,0.991724319052427,0.9919600794043301,0.002501711506755951,0.014043092413031144,0.991963234042627,Mirovanje
-0.000903846153846154,0.0012443660014489829,0.006,0.0015379806940870927,0.021769230769230766,0.0015078689064548197,0.008,0.02182139035265803,0.9916346153846154,0.002278907009898237,0.014000000000000012,0.9916372339954536,0.9918758736078112,0.00227896082320109,0.014043092413031144,0.9918784917053562,Mirovanje
-0.0009903846153846154,0.001451095026229478,0.008,0.0017568547070086534,0.02169230769230769,0.0014010773538528447,0.006000000000000002,0.021737507464500865,0.9917115384615385,0.0016271321924163503,0.01100000000000001,0.9917128733040239,0.9919512925821616,0.001631560827145898,0.011035829420064536,0.9919526343763364,Mirovanje
-0.0008846153846153846,0.0012808327542574395,0.008,0.0015566235649883122,0.02150961538461538,0.001379765812819281,0.006000000000000002,0.021553823505176706,0.9916057692307694,0.001756407332020775,0.01100000000000001,0.9916073247704766,0.9918412066474865,0.0017600338447453514,0.011035829420064536,0.9918427682465991,Mirovanje
-0.0006730769230769232,0.001172130765974675,0.005,0.0013516371839081215,0.02156730769230769,0.001479113709916822,0.008,0.02161796795403163,0.9915096153846152,0.0014411213069349083,0.008000000000000007,0.9915106626914151,0.9917461764411379,0.0014419454535438548,0.008048722499146566,0.991747224696045,Mirovanje
-0.0005673076923076924,0.0011499533692629846,0.005,0.0012822756213976653,0.021865384615384613,0.0017544322569933268,0.008,0.02193565765877734,0.9916346153846154,0.0012939035476157207,0.007000000000000006,0.9916354595391315,0.9918780307865978,0.0012938183712949132,0.007020884728281551,0.9918788746228427,Mirovanje
-0.0005865384615384615,0.0011060200384458625,0.006,0.0012519215999045995,0.021759615384615384,0.0016553827834562354,0.007000000000000003,0.021822491925675078,0.9916442307692308,0.0016808781429243917,0.013000000000000012,0.9916456553473275,0.991885111879514,0.001679006412428771,0.013019857737914364,0.9918865329415302,Mirovanje
-0.000625,0.0010847500598329977,0.006,0.0012519215999045995,0.02156730769230769,0.0015302364264093502,0.008,0.02162152595482994,0.991826923076923,0.0020212444172051157,0.014000000000000012,0.9918289826221205,0.9920633611298941,0.0020189019778008963,0.013954476451874198,0.992065415414497,Mirovanje
-0.0006634615384615386,0.0010616621304774608,0.006,0.0012519215999045995,0.021307692307692305,0.0016354070481130229,0.008999999999999998,0.02137036049514158,0.9917692307692308,0.0019276867824833351,0.01100000000000001,0.991771104175214,0.992000236920913,0.0019268215173751193,0.010976495236677541,0.9920021082096084,Mirovanje
-0.0007307692307692308,0.001272722469828792,0.007,0.0014675987714106856,0.02128846153846154,0.0014187825016478911,0.008,0.021335686969524523,0.9915288461538462,0.0019163102104005013,0.009000000000000008,0.9915306979614902,0.9917594541790233,0.0019171413983010217,0.008999483078876658,0.9917613071624721,Mirovanje
-0.0007115384615384616,0.0012608992282911928,0.007,0.0014478100172860549,0.02156730769230769,0.0012842569168209164,0.005000000000000001,0.021605510337019976,0.9917692307692308,0.0017553805703452363,0.009000000000000008,0.9917707842347134,0.9920055876044361,0.0017597880228129956,0.008999483078876658,0.9920071485086727,Mirovanje
-0.0006634615384615386,0.0011232728359153556,0.006,0.001304577738934356,0.021615384615384613,0.0013178339768470622,0.006000000000000002,0.021655519815084987,0.9919711538461539,0.001444197479899044,0.009000000000000008,0.9919722051394538,0.9922083582800142,0.0014467169896621242,0.009019558695567254,0.9922094129924233,Mirovanje
-0.0006057692307692308,0.0011043469113424984,0.006,0.0012595786841394473,0.021788461538461538,0.001253250212317778,0.006000000000000002,0.02182447461699118,0.9918942307692308,0.0013002830256315604,0.006000000000000005,0.9918950830451932,0.9921351034606798,0.0012986458586798212,0.006060632740014893,0.9921359533854218,Mirovanje
-0.0008461538461538462,0.0011416016984350638,0.006,0.0014209964001470129,0.021778846153846152,0.0012085968562538729,0.006000000000000002,0.0218123553554825,0.991576923076923,0.0012533977489846413,0.006000000000000005,0.9915777152521205,0.9918178190433122,0.001255901949152683,0.0060197535623180976,0.9918186141939151,Mirovanje
-0.0012788461538461538,0.0011557276326828677,0.006,0.0017237035261766583,0.021490384615384613,0.0013228407101305499,0.006000000000000002,0.021531059854580745,0.9915769230769234,0.001313336236843376,0.006000000000000005,0.9915777928285653,0.991812148115494,0.001319004778700785,0.0060197535623180976,0.9918130251832131,Mirovanje
-0.001105769230769231,0.0012397135930929401,0.007,0.0016612090129226318,0.02130769230769231,0.0014615384615384614,0.008,0.02135775845340157,0.9915576923076923,0.0012544300197923422,0.006000000000000005,0.9915584858036518,0.9917890760009757,0.0012541753865035427,0.005978931622721673,0.9917898689897822,Mirovanje
-0.0010480769230769233,0.0012119581080306783,0.007,0.0016022820264571691,0.021249999999999998,0.001511176312067472,0.008,0.021303665267886508,0.9913942307692307,0.0012589546123575443,0.007000000000000006,0.9913950301313956,0.9916243941562958,0.001257038157167214,0.0070487685974157666,0.9916251909016679,Mirovanje
-0.0009038461538461538,0.0011645338351694372,0.006,0.001474135992056677,0.02115384615384615,0.001555197432242748,0.008,0.021210936946628414,0.9917019230769231,0.00123163281001207,0.007000000000000006,0.9917026878827374,0.9919298252183102,0.0012328500703181436,0.0070487685974157666,0.9919305913605664,Mirovanje
-0.0007596153846153847,0.0011392912127527453,0.005,0.0013693063937629153,0.021394230769230766,0.0015280597880895667,0.008,0.021448731359292022,0.9918365384615385,0.001101664622663542,0.0050000000000000044,0.9918371502884471,0.9920693721132382,0.0011030340322562915,0.005084954790893881,0.9920699853181886,Mirovanje
-0.0007115384615384616,0.0010712418828619581,0.006,0.0012860194997923453,0.021807692307692306,0.0013663322821793546,0.007000000000000003,0.021850453260568937,0.9917115384615385,0.0012455542242085606,0.007000000000000006,0.9917123206470094,0.9919530516225911,0.0012515804219309268,0.007063385228681218,0.9919538412027664,Mirovanje
-0.0007500000000000001,0.00119895788082818,0.007,0.0014142135623730952,0.02175,0.0012841489249843495,0.006000000000000002,0.021787875951123335,0.9917307692307694,0.0013461538461538476,0.007000000000000006,0.9917316828503719,0.9919710759260748,0.001351604142499678,0.007063385228681218,0.99197199673564,Mirovanje
-0.0010192307692307692,0.001386617142758489,0.007,0.0017209121016305456,0.021307692307692305,0.0012940464493277476,0.006000000000000002,0.02134695078207442,0.9918750000000001,0.001349412265224555,0.007000000000000006,0.9918759179143636,0.9921061751642998,0.0013518821987277413,0.0069560758093878405,0.9921070962273254,Mirovanje
-0.0010192307692307692,0.001372678244210994,0.007,0.0017097008285302208,0.021288461538461534,0.0013564169211217193,0.007000000000000003,0.02133163054101729,0.9918653846153848,0.001500369776906888,0.007000000000000006,0.991866519400515,0.9920962121832095,0.001503202541867121,0.00702067858242994,0.9920973509924084,Mirovanje
-0.0009326923076923078,0.0012030763697618244,0.007,0.001522270571320254,0.02147115384615384,0.0013225611136761443,0.006000000000000002,0.021511848255894132,0.9916057692307694,0.0013757394461411077,0.007000000000000006,0.991606723570776,0.9918402466677011,0.001377041756899989,0.00702067858242994,0.9918412025893288,Mirovanje
-0.0009615384615384616,0.0011087334850307365,0.005,0.0014675987714106856,0.0215,0.0012860194997923449,0.006000000000000002,0.021538427197774823,0.9916826923076922,0.0012577790489965547,0.006000000000000005,0.9916834899456426,0.9919176438797233,0.0012608263859696018,0.006131024584913214,0.9919184451975257,Mirovanje
-0.0008557692307692309,0.0012122632142367912,0.006,0.0014838878249123406,0.021240384615384612,0.0012897166676600856,0.008,0.02127950440429259,0.9919615384615385,0.0014136904576530092,0.007000000000000006,0.9919625458189901,0.9921908550680112,0.0014207948023214046,0.007040372312807075,0.9921918723404569,Mirovanje
-0.0006153846153846154,0.0010497956972273985,0.005,0.0012168686168889519,0.021009615384615384,0.0012595419825941329,0.006999999999999999,0.021047336758254827,0.9919807692307692,0.0013935343088071024,0.007000000000000006,0.9919817480485911,0.9922047704441831,0.0013975418385194227,0.007038855911033148,0.9922057546776196,Mirovanje
-0.000548076923076923,0.0010179146073856068,0.006,0.0011560875665530105,0.021346153846153845,0.0016511606102819754,0.008,0.021409918621625244,0.9918173076923077,0.001261595624877505,0.006000000000000005,0.9918181100693506,0.9920490348315376,0.0012637662756142846,0.006039080351605275,0.992049839783962,Mirovanje
-0.0007980769230769232,0.0012355301547569,0.007,0.0014708710135363802,0.021490384615384613,0.001617186495047282,0.008,0.021551146676613828,0.9917019230769231,0.0012851205248199922,0.006000000000000005,0.9917027557535729,0.9919371496434901,0.0012893064004145531,0.006035045820343976,0.9919379875545881,Mirovanje
-0.0008653846153846153,0.0011933928064692464,0.007,0.001474135992056677,0.02143269230769231,0.0013920407202606916,0.006000000000000002,0.021477850845070066,0.9918557692307691,0.0015653598089132577,0.007000000000000006,0.9918570044657103,0.9920893815080816,0.0015644681047085232,0.007000126866333223,0.9920906150455907,Mirovanje
-0.0006634615384615386,0.000956863635922841,0.004,0.0011643750387092771,0.02154807692307692,0.001322001743367782,0.006000000000000002,0.02158859207295158,0.9918942307692309,0.0015867132770821084,0.008000000000000007,0.9918954998850976,0.9921298264643224,0.0015853104125908865,0.008084942689420282,0.992131093036213,Mirovanje
-0.0006923076923076924,0.0010748606624986245,0.006,0.0012785207798918972,0.021634615384615384,0.001330541332197685,0.006000000000000002,0.021675491299551278,0.9918750000000001,0.001432369607436466,0.007000000000000006,0.991876034244044,0.992112629388627,0.0014350796977217225,0.007107338619668613,0.9921136673013601,Mirovanje
-0.0008173076923076924,0.0012150057223426743,0.006,0.0014643192169847287,0.02133653846153846,0.0014846041749277876,0.006999999999999999,0.021388125749511648,0.9919519230769231,0.0013543363950680497,0.006000000000000005,0.9919528476309127,0.9921835605892285,0.001352839016193242,0.006037698879616249,0.9921844828845706,Mirovanje
-0.0009423076923076924,0.0011165444897688296,0.006,0.0014610323010171213,0.021298076923076923,0.0015309612848211744,0.008,0.021353030770289334,0.9919519230769231,0.0014167935608559363,0.007000000000000006,0.9919529348714081,0.9921827879488626,0.001423670075406902,0.0070019656267444885,0.9921838093511007,Mirovanje
-0.0007596153846153847,0.0011392912127527453,0.006,0.0013693063937629153,0.021980769230769227,0.0014998767207723414,0.008,0.022031882492284813,0.9920865384615385,0.0014284915182637531,0.007000000000000006,0.992087566893475,0.9923320806696929,0.0014355850818917723,0.0070019656267444885,0.9923331190838938,Mirovanje
-0.0005,0.001028441689009303,0.006,0.0011435437497937313,0.02210576923076923,0.0013652153199486463,0.006999999999999999,0.022147885816796286,0.9923461538461538,0.0014396128670933013,0.0050000000000000044,0.9923471980806221,0.992593938309089,0.0014393432444880117,0.0050874055540482965,0.9925949818918708,Mirovanje
-0.0006346153846153846,0.001028980940128596,0.005,0.0012089410496539778,0.021317307692307687,0.0014429165381596657,0.008,0.02136608563552565,0.9919807692307692,0.001407266644344286,0.006000000000000005,0.9919817674348037,0.9922115669912148,0.001415770377256721,0.006064456008593955,0.9922125770604417,Mirovanje
-0.0010192307692307692,0.0012858757060310872,0.006,0.001640825308284734,0.021403846153846155,0.0014245055199371326,0.007000000000000003,0.02145119684665278,0.9915865384615384,0.0010525662497245355,0.0050000000000000044,0.9915870971093997,0.9918198943903439,0.0010556510879448104,0.00504715411314971,0.9918204561853382,Mirovanje
-0.0010192307692307692,0.0013007451210066041,0.005,0.0016525039276108335,0.021932692307692306,0.0014362372251351464,0.006999999999999999,0.021979667177433996,0.9917115384615385,0.0012455542242085606,0.006000000000000005,0.9917123206470094,0.9919564530305441,0.0012485001403866598,0.006073953420616451,0.9919572387263165,Mirovanje
-0.0007596153846153847,0.0011392912127527455,0.004,0.0013693063937629153,0.021865384615384616,0.0014481931202741806,0.006999999999999999,0.021913290663255206,0.9915961538461537,0.0013410617978162427,0.006000000000000005,0.9915970606900923,0.9918391984470843,0.0013425724443685877,0.006073953420616451,0.9918401071124938,Mirovanje
-0.0006346153846153846,0.0010195935493701204,0.004,0.0012009611535381535,0.021721153846153845,0.0014965134529274701,0.007000000000000003,0.021772645152187572,0.9917403846153845,0.0013372991747698942,0.007000000000000006,0.991741286246647,0.991980081627578,0.0013367441463992442,0.007126791576177682,0.9919809822928911,Mirovanje
-0.0005192307692307693,0.000940343321415204,0.004,0.0010741723110591493,0.0215,0.0014675987714106854,0.007000000000000003,0.02155003123324526,0.9919326923076923,0.001310199801827974,0.007000000000000006,0.9919335575996547,0.9921673371126768,0.0013097905768695156,0.007126791576177682,0.992168201659686,Mirovanje
-0.0005769230769230769,0.001089215558346638,0.006,0.0012325707968432358,0.021711538461538456,0.0014255436002497495,0.006000000000000002,0.02175828754573937,0.9917499999999999,0.0012384077866978425,0.0050000000000000044,0.99175077320557,0.9919894210691028,0.00123569758616999,0.005068383114241848,0.9919901907083247,Mirovanje
-0.0008269230769230769,0.0012591381949900657,0.007,0.0015063966175050876,0.021875,0.0014188802464782408,0.006000000000000002,0.02192096818468213,0.9913846153846154,0.0011033837144446973,0.0050000000000000044,0.9913852294022355,0.9916280855657994,0.0011004866895234094,0.005068383114241848,0.9916286962133791,Mirovanje
-0.0008461538461538462,0.0012917581249035897,0.007,0.0015442199922988255,0.02142307692307692,0.0013636229154796796,0.007000000000000003,0.021466431755363825,0.9914423076923077,0.0011251232674084682,0.0050000000000000044,0.9914429461066407,0.991675879381812,0.0011215813023121549,0.005041730052649074,0.9916765136335073,Mirovanje
-0.000701923076923077,0.001270068196929626,0.007,0.001451126883070268,0.021317307692307687,0.0014023635479824975,0.006999999999999999,0.021363385283452406,0.9917307692307692,0.0012877437725217864,0.007000000000000006,0.9917316052859649,0.9919619009344872,0.0012899680288638016,0.007040738459967333,0.9919627396848517,Mirovanje
-0.0006346153846153846,0.0011440287475181423,0.007,0.0013082577962842269,0.02147115384615384,0.0013794977539867315,0.008,0.021515423805690225,0.9917980769230769,0.001318360051295576,0.007000000000000006,0.9917989531460186,0.9920322760073004,0.001323563868529345,0.007040233002265861,0.9920331589526322,Mirovanje
-0.0005576923076923078,0.0011420875208693264,0.005,0.0012709778186044852,0.021201923076923073,0.0013256334312632735,0.007000000000000003,0.02124332474340696,0.9917211538461538,0.0012968655316186774,0.006000000000000005,0.9917220017959437,0.9919494548968537,0.0013046098105560194,0.006034543419791039,0.9919503128065049,Mirovanje
-0.0006153846153846154,0.0011873345415717794,0.006,0.001337333742362593,0.020980769230769226,0.0012708323228889829,0.007000000000000003,0.021019221971987745,0.9915961538461538,0.0011645338351694383,0.0050000000000000044,0.9915968376621309,0.9918197991540911,0.0011707353770329257,0.005127296668490655,0.991820490116727,Mirovanje
-0.0004134615384615385,0.0010433910776062839,0.007,0.001122325881647298,0.021384615384615387,0.0013031595650844165,0.006000000000000002,0.02142428528562855,0.9916923076923077,0.0011186953517114614,0.006000000000000005,0.9916929386737532,0.9919243333628187,0.0011229930973677424,0.006066980161812396,0.991924969052987,Mirovanje
-0.00015384615384615385,0.0007438107540697584,0.005,0.00075955452531275,0.02192307692307692,0.0012762046171566966,0.006000000000000002,0.02196019125599775,0.9918942307692309,0.0012627676352329113,0.006000000000000005,0.9918950345754255,0.9921375846755155,0.0012647579594230727,0.006066474714699899,0.9921383908197795,Mirovanje
-0.00032692307692307697,0.001023214276494079,0.007,0.0010741723110591493,0.021951923076923077,0.0013328671214016831,0.006000000000000002,0.021992350068568426,0.9919519230769231,0.0015088189962065078,0.007000000000000006,0.9919530705788299,0.9921962634582127,0.0015120575460892348,0.00703840196816552,0.9921974156076309,Mirovanje
-0.0005192307692307693,0.0013081164470540281,0.008,0.0014073980356563067,0.021807692307692306,0.001575515319097234,0.008,0.021864530461633343,0.992076923076923,0.0015171602248704643,0.008000000000000007,0.9920780831552136,0.9923188159091688,0.001526149103648642,0.00813102606762428,0.9923199894885024,Mirovanje
-0.000625,0.0012104314234062294,0.007,0.0013622662114172953,0.021942307692307688,0.0016102252773407147,0.009000000000000001,0.022001311149740427,0.9920576923076923,0.001277218455178488,0.007000000000000006,0.9920585144807972,0.9923025567851981,0.0012827365057776715,0.007044780060799338,0.9923033858731838,Mirovanje
-0.000625,0.0012183492931011205,0.006,0.0013693063937629153,0.022057692307692302,0.0014730066261595901,0.008,0.022106821084487444,0.9919038461538463,0.001282419818825325,0.0050000000000000044,0.991904675165605,0.9921511135817211,0.0012802235728853577,0.004976528141343417,0.9921519395505137,Mirovanje
-0.000625,0.0012648160401357248,0.006,0.0014108099146889405,0.02183653846153846,0.001309070258171196,0.006000000000000002,0.021875741745666064,0.9918269230769231,0.0012437714643861646,0.0050000000000000044,0.9918277029341801,0.9920691417151726,0.0012445182808702047,0.004980551290764801,0.9920699223185989,Mirovanje
-0.0006442307692307692,0.0010912084799641001,0.005,0.0012671895007335054,0.021413461538461534,0.001221683713026639,0.005000000000000001,0.021448283058413935,0.9916153846153846,0.001203422142089387,0.0050000000000000044,0.9916161148502828,0.9918481244146025,0.0012049653061644253,0.005043636502409465,0.9918488563516893,Mirovanje
-0.0005384615384615384,0.0009895907946360467,0.005,0.0011266014242982162,0.021663461538461534,0.0013909776371251437,0.006000000000000002,0.021708071876962835,0.9917884615384616,0.0012910421917305434,0.007000000000000006,0.9917893018331914,0.9920266423946443,0.0012921398385935035,0.007022022446417919,0.9920274839167278,Mirovanje
-0.0004519230769230769,0.001064097737091307,0.006,0.0011560875665530105,0.021884615384615384,0.00128831801726494,0.006000000000000002,0.021922503366316404,0.9918461538461538,0.001253987722069317,0.007000000000000006,0.9918469465520451,0.9920890725587989,0.0012530707662181389,0.007021516999305422,0.9920898639119962,Mirovanje
-0.0006634615384615386,0.001114679817110975,0.007,0.0012971863041569272,0.021538461538461538,0.001467094701750819,0.007000000000000003,0.021588369375839675,0.9917403846153845,0.0011601988581844695,0.0050000000000000044,0.9917410632511198,0.991976168986594,0.0011649402376325323,0.005043131055296968,0.9919768530177893,Mirovanje
-0.0008365384615384616,0.001029475005516039,0.005,0.0013265049508446565,0.02183653846153846,0.0016414731711476835,0.007000000000000003,0.021898147094077305,0.9916250000000001,0.0010486942430397038,0.0050000000000000044,0.9916255545237908,0.9918676384422951,0.0010567199526234172,0.005043131055296968,0.991868201348422,Mirovanje
-0.010057692307692307,0.09597093178937417,0.986,0.09649651249178347,0.02183653846153846,0.0017765057368711464,0.010000000000000002,0.02190868285898047,0.9819423076923078,0.09872970355422588,1.014,0.986893231307217,0.9918408339340694,0.001255965231232344,0.009664618762631139,0.9918416291463533,Mirovanje
-0.5023269230769232,0.4923553173328355,0.99,0.7033818992224965,0.024298076923076926,0.0032666137715598362,0.012,0.024516674074847665,0.4756346153846155,0.5064344451785577,1.018,0.694769123245546,0.9889592224433392,0.0033097463934330783,0.010698066372354487,0.9889647607862088,Mirovanje
-0.9852980769230768,0.0012471491158477265,0.006000000000000005,0.985298866217368,0.02715384615384616,0.0014396128670933004,0.006999999999999999,0.027191981284081637,-0.020855769230769226,0.0013687323531055549,0.006999999999999999,0.020900634881781427,0.9858947825624514,0.0012545397493583439,0.006095640070410191,0.9858955807558153,Mirovanje
-0.9853461538461539,0.001651160610281977,0.007000000000000006,0.9853475372835562,0.027182692307692317,0.0014126109423886726,0.006999999999999999,0.02721937234341069,-0.020932692307692305,0.001250110941822327,0.006000000000000002,0.02096998771137896,0.985945084946988,0.0016411322403745421,0.007011598092912852,0.9859464508005259,Mirovanje
-0.9853942307692307,0.0016137526096670163,0.007000000000000006,0.9853955521671331,0.02723076923076924,0.0014886155754125871,0.006999999999999999,0.02727142770796515,-0.020749999999999994,0.0013569621047937017,0.006999999999999999,0.0207943224499825,0.9859908450429885,0.0016069653285004282,0.007011598092912852,0.9859921545560866,Mirovanje
-0.985701923076923,0.0012851205248199922,0.007000000000000006,0.9857027608220987,0.027211538461538468,0.001644764870517954,0.008,0.0272612009442555,-0.020259615384615383,0.0011435033240314637,0.005999999999999998,0.02029186081621435,0.9862875854441152,0.00129003233771147,0.007126038169734672,0.9862884291040909,Mirovanje
-0.9853365384615385,0.0016267628126191952,0.009000000000000008,0.9853378813303665,0.026942307692307696,0.0014924613322972115,0.009000000000000001,0.02698361326092902,-0.020269230769230765,0.0011027131682178042,0.005000000000000001,0.020299204228434484,0.9859149323603558,0.0016308312032995468,0.009173880940013812,0.9859162811626241,Mirovanje
-0.9849134615384615,0.0014813622688585116,0.007000000000000006,0.9849145755616809,0.026721153846153853,0.0013968145819439892,0.006999999999999999,0.02675763729939835,-0.020326923076923076,0.0013041524487066136,0.008,0.020368716586584817,0.9854873831204943,0.001481429511358744,0.007154454737068772,0.9854884965960166,Mirovanje
-0.9853557692307693,0.0014801134911707162,0.007000000000000006,0.9853568808773335,0.02679807692307693,0.0015589679012602416,0.006999999999999999,0.026843384803193277,-0.020451923076923076,0.0012925809578298681,0.008,0.02049272854153207,0.9859343350927365,0.001479462172716289,0.007072271272261843,0.9859354451094031,Mirovanje
-0.985125,0.0016331158280086298,0.007000000000000006,0.9851263536685575,0.02702884615384616,0.0014375241186553973,0.006999999999999999,0.02706704638485699,-0.020413461538461537,0.0009962485105005458,0.005000000000000001,0.020437757290782253,0.9857086734803147,0.001634209614122432,0.007038177551232261,0.9857100281600998,Mirovanje
-0.985125,0.0014979954554722081,0.007000000000000006,0.98512613893622,0.026942307692307696,0.0012390048975265092,0.005999999999999998,0.02697078191159976,-0.020634615384615383,0.0012093998218100097,0.006000000000000002,0.020670026608594388,0.9857108866592005,0.0014935239670950554,0.0070036734063365635,0.9857120181332414,Mirovanje
-0.9855769230769231,0.0015360558113627597,0.007000000000000006,0.98557812007432,0.026903846153846164,0.0013338725487584493,0.008,0.026936892059889795,-0.020557692307692308,0.0012696677569418511,0.006000000000000002,0.02059686309200431,0.9861600750508333,0.0015375526145014582,0.007130383203115542,0.9861612736729767,Mirovanje
-0.9856442307692308,0.0015058748366543093,0.007000000000000006,0.9856453811121384,0.026903846153846164,0.0012973288442709946,0.008,0.02693510720231126,-0.02019230769230769,0.0010197748910432966,0.005000000000000001,0.020218042209106966,0.9862194484943364,0.0015119358413768797,0.007116236360718009,0.9862206074395634,Mirovanje
-0.985625,0.0012874206472932327,0.007000000000000006,0.9856258408122847,0.026894230769230774,0.0012779059586109046,0.006999999999999999,0.026924574134193694,-0.02027884615384615,0.0011804230888283463,0.005000000000000001,0.020313173065771878,0.9862018989588592,0.0012923850706287874,0.007042751752989851,0.9862027457725063,Mirovanje
-0.9856057692307693,0.0013474924663038252,0.007000000000000006,0.9856066903572251,0.026894230769230774,0.001473602788242067,0.008,0.026934571721973857,-0.02052884615384615,0.0012630604678961852,0.005000000000000001,0.02056766506324542,0.9861882264092297,0.0013528372927177244,0.007058414988248662,0.9861891543091128,Mirovanje
-0.9854903846153846,0.0013867171548140682,0.007000000000000006,0.9854913602634201,0.026721153846153853,0.001515666461489865,0.008,0.026764104836371937,-0.02053846153846154,0.0014204757932784143,0.006999999999999999,0.020587524228186202,0.9860686881425317,0.0013881211225865273,0.007017704517973233,0.9860696651937857,Mirovanje
-0.9854519230769232,0.0013578816058925406,0.007000000000000006,0.9854528586078897,0.026788461538461542,0.001405162712471659,0.005999999999999998,0.026825289445710623,-0.020615384615384612,0.0013888823142513681,0.006999999999999999,0.020662116951635837,0.9860334786697872,0.0013545152598107538,0.007101069179618502,0.9860344090188896,Mirovanje
-0.9855769230769231,0.0015360558113627597,0.008000000000000007,0.98557812007432,0.026625000000000006,0.0014424038429489317,0.005999999999999998,0.026664042338815655,-0.020576923076923073,0.0011741798094210575,0.006999999999999999,0.020610396928212267,0.986152959524352,0.00152669773602492,0.008172316331732876,0.9861541412906074,Mirovanje
-0.9854807692307693,0.0015378604595019055,0.008000000000000007,0.9854819691594877,0.026538461538461545,0.0015927907108345119,0.008,0.026586216787593587,-0.020211538461538454,0.00124555422420856,0.005999999999999998,0.020249881291200013,0.9860472853983868,0.0015320288242844007,0.008053582722186814,0.9860484755598206,Mirovanje
-0.9852403846153847,0.0014708395843327851,0.007000000000000006,0.9852414825037331,0.027048076923076928,0.0015712550574688063,0.008,0.027093676525940653,-0.02015384615384615,0.0012229317765834345,0.005999999999999998,0.020190915702936234,0.9858196311485354,0.0014744737822923373,0.006955365812385206,0.9858207338206928,Mirovanje
-0.9851057692307692,0.0014068395378319107,0.006000000000000005,0.9851067737911615,0.02711538461538462,0.0014230769230769234,0.006999999999999999,0.02715270208964903,-0.020346153846153844,0.0010721046049820273,0.005000000000000001,0.020374380594643478,0.9856905026973393,0.001404733740572206,0.0061017464954705725,0.9856915036585308,Mirovanje
-0.9851346153846154,0.001316008623917357,0.007000000000000006,0.9851354943903363,0.02663461538461539,0.0015257891546274335,0.006999999999999999,0.02667828272641943,-0.020346153846153844,0.0010448521313235482,0.005000000000000001,0.020372964740255465,0.9857063415116555,0.0013187391471732688,0.007093733450673767,0.9857072236568173,Mirovanje
-0.9854230769230768,0.0014324018807335454,0.008000000000000007,0.9854241179855973,0.026230769230769238,0.0013389919373484006,0.006999999999999999,0.02626492249838468,-0.020394230769230765,0.0011130197077421787,0.0049999999999999975,0.020424579837501226,0.9859846012777739,0.0014380424840698676,0.008061323739633974,0.9859856499579883,Mirovanje
-0.9856153846153846,0.0013467031846162779,0.007000000000000006,0.9856163046540981,0.025971153846153852,0.0011133519276459256,0.006000000000000002,0.025995006917009747,-0.020499999999999997,0.0010377490433255416,0.005999999999999998,0.020526249610606492,0.986171767930495,0.0013458991544352367,0.006964102357567836,0.9861726863524929,Mirovanje
-0.9856826923076922,0.0014092034239033171,0.008000000000000007,0.9856836996568578,0.026125000000000006,0.0013984022476218516,0.006000000000000002,0.026162399619418585,-0.020394230769230765,0.0011719335537639796,0.006999999999999999,0.02042787499773476,0.9862414203058413,0.0014092101038857018,0.007952831421838003,0.9862424270938662,Mirovanje
-0.9857788461538461,0.0014997226074872272,0.008000000000000007,0.9857799869607354,0.02625961538461539,0.0013797658128192813,0.006000000000000002,0.026295839097586406,-0.020394230769230765,0.001274138239924487,0.006999999999999999,0.020433993171259428,0.9863411861002765,0.001505498381492255,0.007952831421838003,0.9863423350556727,Mirovanje
-0.9853942307692308,0.001361689202867932,0.0050000000000000044,0.9853951716092225,0.0263173076923077,0.001250110941822327,0.006000000000000002,0.026346982019549436,-0.020615384615384612,0.0013749663793630367,0.006999999999999999,0.020661186204683782,0.9859628862511519,0.0013708548392434257,0.005188900511452599,0.9859638392495398,Mirovanje
-0.9855192307692308,0.0016289494563555224,0.009000000000000008,0.9855205770009613,0.026365384615384624,0.0013940649768799565,0.006999999999999999,0.026402214359347267,-0.020730769230769226,0.001309952797378954,0.006000000000000002,0.020772115184322693,0.9860916321921042,0.00163043102506192,0.008986623214655154,0.986092980090932,Mirovanje
-0.9854423076923076,0.001628041077945914,0.009000000000000008,0.985443652527983,0.02654807692307693,0.0015864801854098983,0.008,0.026595437723269524,-0.02047115384615384,0.0011262320669555867,0.005999999999999998,0.020502110585535784,0.9860142987468024,0.0016275197994877909,0.008986623214655154,0.9860156419417727,Mirovanje
-0.9854903846153846,0.0014477780874611094,0.007000000000000006,0.9854914480759177,0.026721153846153853,0.0013968145819439892,0.008,0.02675763729939835,-0.020288461538461533,0.001157526182816322,0.005999999999999998,0.020321455126578375,0.986062992049021,0.0014500463473580924,0.007140017286750067,0.9860640582249598,Mirovanje
-0.9857884615384616,0.001523363415168738,0.009000000000000008,0.985789638583436,0.026442307692307702,0.0013993605894020305,0.006999999999999999,0.026479309774876045,-0.02049038461538461,0.0011350634708421536,0.005000000000000001,0.020521798916499273,0.9863575295718611,0.001527570711968471,0.009072320481080753,0.9863587124446078,Mirovanje
-0.9851538461538462,0.0014856313781406142,0.007000000000000006,0.9851549663338797,0.026471153846153856,0.0014341757936531321,0.006999999999999999,0.026509976351438834,-0.020701923076923073,0.0011592421902351991,0.005000000000000001,0.02073435462073661,0.9857285604663206,0.0014849515127853857,0.007073559462955292,0.9857296789688338,Mirovanje
-0.9851442307692307,0.0015154224419332049,0.007000000000000006,0.9851453963365392,0.02654807692307693,0.0013719708430148362,0.006999999999999999,0.026583504138989883,-0.02067307692307692,0.0013333179239740731,0.007000000000000003,0.020716028725454264,0.9857205473840315,0.0015135806762990654,0.007017513265674236,0.9857217094401131,Mirovanje
-0.9854807692307692,0.001587091978035793,0.007000000000000006,0.9854820472157853,0.02650961538461539,0.001550404366036439,0.008,0.0265549140751474,-0.020461538461538458,0.0012162606385262998,0.007000000000000003,0.020497654650077562,0.9860515641639405,0.0015797158459536478,0.006967646606868549,0.9860528295645764,Mirovanje
-0.9853269230769232,0.0016257679114114513,0.008000000000000007,0.9853282643167902,0.02674038461538462,0.0014870931396241327,0.008,0.026781702996348373,-0.020374999999999997,0.0010018012623423716,0.005000000000000001,0.020399613495584442,0.9859019092860338,0.0016178917903387812,0.007975643678682753,0.9859032367873087,Mirovanje
-0.9852211538461538,0.001640571727086622,0.009000000000000008,0.9852225197697921,0.026903846153846164,0.001333872548758449,0.005999999999999998,0.026936892059889795,-0.020432692307692308,0.0011160061265764688,0.005000000000000001,0.020463146987093277,0.9858017255677795,0.00164555996199653,0.00901042077771863,0.9858030990010125,Mirovanje
-0.9854999999999999,0.0015992786835609084,0.009000000000000008,0.9855012976614022,0.02670192307692309,0.0014992293385161111,0.006999999999999999,0.026743978473955304,-0.02052884615384615,0.0011431798664692234,0.005000000000000001,0.02056065136651523,0.9860771837356782,0.0016050474921473273,0.008989536203038107,0.9860784900105765,Mirovanje
-0.985721153846154,0.0015283017898788018,0.008000000000000007,0.9857223386157756,0.026519230769230778,0.00152530431535411,0.006999999999999999,0.02656305994884915,-0.020663461538461533,0.0012604225247227227,0.006000000000000002,0.020701867251344933,0.9862962786822809,0.0015306747456036564,0.007974464816644211,0.9862974664408767,Mirovanje
-0.9855769230769231,0.0015547217639544427,0.008000000000000007,0.9855781493425767,0.02624038461538462,0.0013901797912755766,0.005999999999999998,0.026277183726864353,-0.020490384615384608,0.0013727792717673456,0.006000000000000002,0.02053631867242483,0.9861410096184702,0.0015583258431189461,0.007995349391324735,0.9861422408713508,Mirovanje
-0.9855865384615383,0.001522968867573345,0.009000000000000008,0.9855877151379115,0.026355769230769235,0.0014930497263008695,0.008,0.026398025858589674,-0.02048076923076923,0.0012324207669240088,0.006000000000000002,0.020517815898159562,0.986153461260076,0.0015269623448305773,0.009093701339304539,0.9861546434354151,Mirovanje
-0.9857980769230769,0.0014370094995424182,0.008000000000000007,0.9857991242953801,0.02679807692307693,0.0015278177479679696,0.009000000000000001,0.026841593727760536,-0.020634615384615383,0.0009712966383980299,0.004,0.020657462797516284,0.9863797580903104,0.001445065505747716,0.008100393230694225,0.9863808166142605,Mirovanje
-0.9853173076923076,0.0015144459705229301,0.008000000000000007,0.9853184715535457,0.02675961538461539,0.0015159104417661429,0.008,0.0268025185383762,-0.020682692307692305,0.001012084891895125,0.005000000000000001,0.020707440134480094,0.9858992540995709,0.0015245417174003754,0.00809723173658805,0.9859004328336297,Mirovanje
-0.985125,0.0014256408815255428,0.007000000000000006,0.9851260315700338,0.026490384615384624,0.001467567272129238,0.006999999999999999,0.02653100508403763,-0.020721153846153844,0.0011304928364454317,0.005000000000000001,0.020751969322674677,0.9857006630065881,0.0014281060303690273,0.007168109932950584,0.9857016975426498,Mirovanje
-0.9855480769230768,0.0012548353224190558,0.006000000000000005,0.9855488757735262,0.02625961538461539,0.001407365188978301,0.005999999999999998,0.026297301704225794,-0.020634615384615383,0.0010195935493701202,0.004,0.02065979000563469,0.986115299392339,0.001256122135377385,0.006113629949352384,0.9861160994215952,Mirovanje
-0.9854423076923078,0.0012696677569418522,0.007000000000000006,0.985443125627326,0.026461538461538467,0.001598816130063579,0.008,0.026509794996740936,-0.020692307692307694,0.0009813346786286979,0.005000000000000001,0.02071556456832918,0.9860164546210797,0.0012684276818559737,0.007113150474825747,0.9860172704837921,Mirovanje
-0.9852500000000001,0.0014394844162461046,0.007000000000000006,0.9852510515677639,0.026721153846153853,0.0015283017898788007,0.008,0.026764823355119854,-0.020903846153846148,0.0011890464082392853,0.006000000000000002,0.020937636337099167,0.9858358502125876,0.0014322833604582218,0.007113150474825747,0.9858368906670109,Mirovanje
-0.9852500000000001,0.0014919656626281796,0.006000000000000005,0.985251129642356,0.026913461538461546,0.001414965186599989,0.006999999999999999,0.02695063150394696,-0.020769230769230766,0.0014021327795044757,0.006000000000000002,0.020816506024713254,0.9858383439065672,0.0014871471459469367,0.005993079436055537,0.9858394655942097,Mirovanje
-0.985375,0.001429009204901183,0.008000000000000007,0.9853760361873571,0.027048076923076928,0.0013824435424020017,0.005999999999999998,0.027083382642953138,-0.020326923076923076,0.0012044972434453538,0.006000000000000002,0.02036257879996086,0.9859574175101888,0.0014310065394527182,0.007989694023732175,0.9859584559823386,Mirovanje
-0.9856153846153847,0.0015769230769230784,0.010000000000000009,0.98561664610381,0.02690384615384616,0.0012051111564533308,0.005999999999999998,0.026930823061489056,-0.020432692307692304,0.0009278223374875325,0.004,0.020453747070665787,0.9861953696587348,0.0015782713944598968,0.00992596414212732,0.9861966325621494,Mirovanje
-0.9856442307692308,0.0014801134911707164,0.008000000000000007,0.9856453420904576,0.026644230769230778,0.0011512390417984211,0.005000000000000001,0.02666909043472208,-0.020913461538461537,0.0011444731482137306,0.006999999999999999,0.020944753336043193,0.9862273981792087,0.0014773429551738816,0.007995221809633746,0.9862285046892219,Mirovanje
-0.9853076923076924,0.0017871169469983004,0.01100000000000001,0.9853093130117527,0.026355769230769235,0.0013581539311107987,0.007000000000000003,0.026390739926083047,-0.020874999999999998,0.001230130543416492,0.006999999999999999,0.020911213407017928,0.9858828528020519,0.0017868571794345837,0.011020404753511737,0.9858844720897536,Mirovanje
-0.9852211538461538,0.0018395062609362532,0.01100000000000001,0.985222871115582,0.026346153846153852,0.0014126436670928429,0.008,0.02638399864719873,-0.02060576923076923,0.0010040137643744006,0.005000000000000001,0.02063021495842371,0.9857902668401266,0.0018375870996277855,0.011020404753511737,0.9857919795388259,Mirovanje
-0.9852307692307692,0.0014225570776082266,0.007000000000000006,0.9852317962325883,0.026480769230769235,0.0013227358683859723,0.005999999999999998,0.02651378451354633,-0.02065384615384615,0.0011416016984350638,0.006000000000000002,0.02068537201465363,0.9858045129548976,0.0014212424370309222,0.0069752616287905855,0.9858055374627938,Mirovanje
-0.9851730769230769,0.0017674531203243791,0.008000000000000007,0.985174662374452,0.0265673076923077,0.0012307316700999379,0.005999999999999998,0.026595799263446445,-0.02047115384615384,0.0012781953231113267,0.006000000000000002,0.020511019552350955,0.9857454201475082,0.0017664949381243909,0.008031053399688792,0.9857470029607768,Mirovanje
-0.9852692307692308,0.0017443908416074733,0.008000000000000007,0.9852707749649331,0.026807692307692314,0.0013521842947113035,0.005999999999999998,0.026841772840681913,-0.020403846153846154,0.0011479013523787223,0.005000000000000001,0.020436110573800865,0.985846635898453,0.0017395034689890228,0.008031053399688792,0.985848170553973,Mirovanje
-0.985423076923077,0.001405294300495779,0.007000000000000006,0.9854240789551548,0.026894230769230774,0.0014472671144580452,0.006999999999999999,0.026933143722358718,-0.02047115384615384,0.0013005674114462413,0.006999999999999999,0.02051242587761417,0.9860044649144089,0.001401570411778724,0.007119088458567235,0.9860054610552464,Mirovanje
-0.9853461538461539,0.0013138992963491337,0.006000000000000005,0.9853470298482505,0.026769230769230774,0.001469109942675714,0.006999999999999999,0.026809513236909024,-0.020288461538461536,0.0013564169211217197,0.006999999999999999,0.020333753673671236,0.9859205174693655,0.001309199056349504,0.006139445875761984,0.9859213867085097,Mirovanje
-0.9852019230769229,0.0013962849588785723,0.008000000000000007,0.9852029125241936,0.02673076923076924,0.0014559610177498233,0.006999999999999999,0.026770391221531412,-0.02044230769230769,0.0012390048975265086,0.005999999999999998,0.02047982121316192,0.9857783362352831,0.0013883725825118891,0.007864867096736727,0.9857793139284425,Mirovanje
-0.9854134615384615,0.0014047349662636686,0.007000000000000006,0.9854144627828122,0.02665384615384616,0.0014329181546305508,0.008,0.026692335402335426,-0.020432692307692304,0.0012307316700999379,0.005999999999999998,0.020469724360250078,0.9859874201847585,0.001400386931692362,0.006956432315086247,0.985988414661224,Mirovanje
-0.9856442307692308,0.0014736027882420678,0.01100000000000001,0.9856453323350374,0.02670192307692309,0.0015804077351960332,0.008,0.026748652014921884,-0.020134615384615383,0.0012714142058511998,0.005000000000000001,0.02017471761312239,0.9862134930693105,0.0014754176560039195,0.01101187235473211,0.9862145967127188,Mirovanje
-0.9856730769230768,0.001655075571667046,0.01100000000000001,0.9856744664675826,0.026836538461538464,0.0015878782221948604,0.006999999999999999,0.02688347361942191,-0.02011538461538461,0.001211385826771048,0.005000000000000001,0.02015182755598494,0.9862455233075623,0.0016549651472794382,0.01101187235473211,0.9862469118602329,Mirovanje
-0.9854519230769232,0.0014470115602929045,0.009000000000000008,0.9854529854531172,0.02663461538461539,0.0015507919335945024,0.008,0.026679724367161147,-0.020413461538461533,0.0011060200384458625,0.006000000000000002,0.02044340217057064,0.9860249677301814,0.00144566101535524,0.008986642086401764,0.986026027507934,Mirovanje
-0.9853557692307693,0.0013295333856916274,0.006000000000000005,0.9853566661952334,0.02673076923076924,0.0014225570776082255,0.008,0.02676859526212932,-0.020644230769230762,0.0011595611672489364,0.006000000000000002,0.020676770689685712,0.9859361471456529,0.001326614273797313,0.006045949721389721,0.9859370396500206,Mirovanje
-0.9851730769230769,0.0014307227039581448,0.006000000000000005,0.985174115809758,0.02700961538461539,0.001362232276503508,0.006999999999999999,0.027043945718034562,-0.02060576923076923,0.0012201691972109792,0.006999999999999999,0.02064186373517514,0.9857603513919889,0.001424648568169579,0.0060242024685764894,0.985761380862529,Mirovanje
-0.985423076923077,0.0014851334289467568,0.007000000000000006,0.9854241960464774,0.02674038461538462,0.0013936338244626494,0.006999999999999999,0.02677667613083044,-0.020461538461538458,0.0011344524002886633,0.005999999999999998,0.020492963144980732,0.9859998022059119,0.001479231836378389,0.006943239024940984,0.986000911803292,Mirovanje
-0.9856346153846154,0.001474512255131353,0.008000000000000007,0.9856357183213122,0.02665384615384616,0.0013989641138056315,0.005999999999999998,0.026690534190694188,-0.020451923076923076,0.0011592421902351993,0.005000000000000001,0.0204847504256215,0.9862087065725068,0.0014717087812645923,0.007978478360916919,0.9862098046795893,Mirovanje
-0.9854903846153847,0.0014999691811429666,0.008000000000000007,0.9854915261314646,0.026576923076923085,0.0015234847938721814,0.006999999999999999,0.026620553077534772,-0.020663461538461533,0.0012373247888634957,0.006000000000000002,0.020700473796138468,0.9860671626222074,0.0015041065955900678,0.008171150270716132,0.9860683097729395,Mirovanje
-0.9854423076923078,0.0013504053741585215,0.008000000000000007,0.9854432329589642,0.026307692307692313,0.0014416665241531778,0.006999999999999999,0.026347164494933354,-0.02056730769230769,0.0011747702154768812,0.006000000000000002,0.02060083082715915,0.9860096793018986,0.0013583133933382859,0.008171150270716132,0.9860106148983934,Mirovanje
-0.9852884615384615,0.0011821840684079767,0.006000000000000005,0.9852891707514093,0.026221153846153852,0.0013933684335867438,0.006999999999999999,0.026258148918295525,-0.020451923076923076,0.0010996486125148875,0.005000000000000001,0.020481464415792752,0.985851073053432,0.0011800545018809828,0.006127699225367933,0.9858517793102728,Mirovanje
-0.9853942307692307,0.0013186405385177903,0.007000000000000006,0.9853951130618387,0.026307692307692313,0.0013663322821793546,0.006999999999999999,0.026343149744507365,-0.020519230769230765,0.0010917590713259429,0.005000000000000001,0.020548254651691692,0.9859604440403266,0.0013129895842213955,0.007001214358687946,0.9859613182847723,Mirovanje
-0.9854134615384614,0.0012831045353051767,0.007000000000000006,0.9854142969017963,0.02662500000000001,0.0014424038429489317,0.008,0.02666404233881566,-0.020480769230769226,0.0012632434538396148,0.005999999999999998,0.02051969035603833,0.9859876828283425,0.0012863496458037122,0.006941167907761003,0.9859885219335037,Mirovanje
-0.985346153846154,0.0012071042174211714,0.006000000000000005,0.9853468932310082,0.02665384615384616,0.001446276590535628,0.008,0.026693055852959786,-0.02065384615384615,0.0013711956515366065,0.005999999999999998,0.02069931251180914,0.9859249422707175,0.0012202367446801287,0.006064911821406338,0.9859256973876027,Mirovanje
-0.9854038461538461,0.0014969149734937609,0.006000000000000005,0.9854049831258368,0.026365384615384624,0.0012939035476157194,0.006000000000000002,0.026397115227003352,-0.02054807692307692,0.0012238008863648757,0.005000000000000001,0.02058448818518823,0.9859722316634764,0.0015059893521035908,0.006064911821406338,0.9859733817986085,Mirovanje
-0.9851634615384615,0.0015878782221948617,0.007000000000000006,0.985164741202045,0.026394230769230774,0.0013039752035069328,0.005999999999999998,0.02642642180149952,-0.020326923076923076,0.0011388447899609946,0.006000000000000002,0.02035880078076234,0.9857280963320263,0.001588693738081826,0.0070714781264821225,0.9857293765766311,Mirovanje
-0.98525,0.0013283158799483955,0.007000000000000006,0.9852508954185613,0.026384615384615392,0.0013031595650844167,0.005999999999999998,0.02641677788539234,-0.02058653846153846,0.001173510323469692,0.006000000000000002,0.020619958591318568,0.9858197588088682,0.0013262395167035303,0.007016855009635337,0.9858206509143693,Mirovanje
-0.9855192307692308,0.0013081164470540294,0.008000000000000007,0.9855200989247329,0.02620192307692308,0.0011383169736696272,0.005000000000000001,0.026226637955741455,-0.020788461538461533,0.0011740223176613226,0.005000000000000001,0.02082158643183707,0.9860879853007865,0.0013136323881366907,0.008066639672521081,0.986088860288268,Mirovanje
-0.9853365384615385,0.0014385528045913493,0.008000000000000007,0.9853375885763915,0.026394230769230777,0.0014102527680605647,0.009000000000000001,0.026431879062397943,-0.020624999999999998,0.001102335806716461,0.005000000000000001,0.020654437034951335,0.9859073652466864,0.001442433317519193,0.008066639672521081,0.9859084204232857,Mirovanje
-0.9851730769230769,0.0014104166575622246,0.006000000000000005,0.9851740865294979,0.026375000000000006,0.001653594569415369,0.010000000000000002,0.02642678565395345,-0.02051923076923077,0.0009901512047581539,0.005000000000000001,0.020543106648441247,0.9857415284525489,0.0014191842842438199,0.006158042545137743,0.985742550060613,Mirovanje
-0.9850865384615386,0.0014683230683797414,0.007000000000000006,0.9850876327671408,0.026394230769230774,0.0014962663097933088,0.007000000000000003,0.026436607777270343,-0.02035576923076923,0.0011259036475954054,0.005000000000000001,0.020386883037875114,0.9856520566736642,0.0014787280055807816,0.007048709851520063,0.9856531659065162,Mirovanje
-0.9852403846153847,0.001431078078741906,0.007000000000000006,0.9852414239472163,0.026576923076923085,0.0012379597645716216,0.005000000000000001,0.026605739693069702,-0.02052884615384615,0.0011763431829290585,0.005000000000000001,0.02056252191955811,0.9858140310377558,0.0014291126396480795,0.007008508855514073,0.9858150669135901,Mirovanje
-0.9851826923076923,0.0015551677072371136,0.007000000000000006,0.9851839197678933,0.026961538461538467,0.0014801447234533737,0.008,0.02700213666759326,-0.020586538461538458,0.0012373247888634957,0.005999999999999998,0.020623688769508198,0.985768438094757,0.0015473036323473946,0.007097375719065879,0.9857696524504634,Mirovanje
-0.9849519230769231,0.0016720542851667178,0.008000000000000007,0.9849533423154934,0.0268173076923077,0.0016511326128828792,0.008,0.026868089451414865,-0.020374999999999997,0.001178227971933341,0.005999999999999998,0.02040903834466108,0.9855296682548004,0.0016681141951179368,0.0079331450597514,0.9855310799844846,Mirovanje
-0.9851730769230769,0.0015655074606872558,0.008000000000000007,0.9851743207715538,0.026298076923076927,0.001505629230155361,0.006999999999999999,0.026341142139830787,-0.02048076923076923,0.0012008071742883974,0.005000000000000001,0.020515941269019226,0.9857386854121359,0.001563970917606709,0.008001843426877042,0.9857399261078335,Mirovanje
-0.9855961538461538,0.0014312395835645877,0.006000000000000005,0.9855971930373365,0.026480769230769235,0.001480519459454176,0.005999999999999998,0.02652212429129833,-0.020538461538461537,0.0012929027933824317,0.005000000000000001,0.02057911562725668,0.9861676863480999,0.001429826155781025,0.006097989412569116,0.9861687228867076,Mirovanje
-0.9856826923076925,0.001475859743420263,0.007000000000000006,0.9856837972072601,0.026557692307692313,0.001413036304428565,0.006999999999999999,0.026595256951338,-0.020557692307692308,0.0012620718853484465,0.006000000000000002,0.020596396249381553,0.9862565038762887,0.0014750828492307527,0.007091344900235885,0.986257606970761,Mirovanje
-0.9852500000000001,0.001517525820335397,0.007000000000000006,0.9852511686796496,0.026451923076923085,0.0016045596549803104,0.006000000000000002,0.026500544261464632,-0.020576923076923073,0.0012533977489846402,0.006999999999999999,0.02061506170814847,0.985821893350521,0.0015230202868497986,0.007141919169442734,0.9858230698254123,Mirovanje
-0.9852403846153847,0.0014107771474486384,0.006000000000000005,0.9852413946689567,0.026625000000000006,0.00167094802662809,0.006999999999999999,0.026677381661394214,-0.020567307692307687,0.0013065252144886734,0.005999999999999998,0.020608764005785353,0.9858169123497029,0.001423004105024875,0.006148563681775965,0.9858179393860637,Mirovanje
-0.9855096153846153,0.0014141808739969231,0.007000000000000006,0.9855106300406287,0.02670192307692308,0.0014863468878447983,0.006999999999999999,0.026743259395162047,-0.020634615384615383,0.0013591406526218938,0.005000000000000001,0.020679328214055104,0.9860892494880826,0.0014249580936534477,0.007074170029400362,0.9860902790624895,Mirovanje
-0.9855576923076922,0.0013785926706171383,0.008000000000000007,0.9855586564911372,0.026500000000000006,0.0013008872711759818,0.006999999999999999,0.026531911120239865,-0.020740384615384612,0.00132284071013055,0.006000000000000002,0.02078252779472366,0.9861337641200804,0.0013857908240224774,0.007968401562241878,0.9861347378293932,Mirovanje
-0.9854903846153846,0.0014141808739969231,0.008000000000000007,0.9854913992911977,0.026461538461538467,0.0012779421327566267,0.005000000000000001,0.026492379165453484,-0.02058653846153846,0.0012755886795083832,0.006999999999999999,0.020626019788308466,0.9860621453992416,0.0014220878037419147,0.008016283928530488,0.9860631708582757,Mirovanje
-0.9850865384615386,0.0015134688691055007,0.008000000000000007,0.9850877010937421,0.026625000000000006,0.0013022724221676745,0.005000000000000001,0.026656829114910466,-0.020769230769230766,0.0011621496099798558,0.006999999999999999,0.020801719603473618,0.9856666660107977,0.0015167195639036704,0.008064788923579869,0.985667832955442,Mirovanje
-0.9853942307692307,0.0017007818859773418,0.008000000000000007,0.9853956985355211,0.026586538461538467,0.001397873226087766,0.009000000000000001,0.026623261951216212,-0.0210576923076923,0.0010268222364778837,0.005000000000000001,0.021082712568139074,0.9859792456918111,0.0016995892059444274,0.008073492713548291,0.9859807105306176,Mirovanje
-0.9857788461538461,0.0015563562646403334,0.007000000000000006,0.9857800747475224,0.026528846153846156,0.0015377101530499495,0.009000000000000001,0.026573374470872733,-0.020817307692307694,0.0012070659203600581,0.006999999999999999,0.02085227344181703,0.9863573834489537,0.0015586607796972125,0.007094962754558121,0.9863586149609544,Mirovanje
-0.9854903846153846,0.0014411213069349083,0.007000000000000006,0.9854914383189739,0.0263173076923077,0.0016008676918671028,0.006999999999999999,0.026365952695445345,-0.02054807692307692,0.0012851205248199911,0.006999999999999999,0.02058822478991329,0.9860579729738835,0.0014447823967884638,0.007176050206775919,0.9860590314284121,Mirovanje
-0.9853461538461539,0.0015978906213723852,0.008000000000000007,0.9853474494582335,0.02632692307692308,0.0015593533404064282,0.006999999999999999,0.026373063180799867,-0.02064423076923077,0.001247445614898773,0.006000000000000002,0.020681885422160734,0.9859159818235997,0.0015974306894177435,0.008076344994019768,0.9859172759415468,Mirovanje
-0.9851346153846154,0.001487497203020593,0.007000000000000006,0.9851357384020352,0.026644230769230778,0.0013222814581010617,0.005999999999999998,0.026677021226862295,-0.020874999999999998,0.0012761683937595261,0.006000000000000002,0.020913972142307898,0.9857176378372816,0.0014897065886786917,0.007061580915989074,0.9857187635270167,Mirovanje
-0.9850288461538462,0.001354882415911709,0.006000000000000005,0.9850297779567573,0.02662500000000001,0.0012183492931011205,0.005999999999999998,0.026652861009655228,-0.020576923076923073,0.001418912826592055,0.006999999999999999,0.02062578669828322,0.9856052041894526,0.00135757619638372,0.00598982887397681,0.9856061391542068,Mirovanje
-0.9855288461538462,0.0015686638776190233,0.008000000000000007,0.9855300945723029,0.026355769230769235,0.0015927616874157314,0.006999999999999999,0.026403853157038682,-0.02056730769230769,0.0013711619376177264,0.008,0.020612962687814453,0.9860979398016436,0.0015742042287977419,0.008131164006959568,0.9860991963286452,Mirovanje
-0.9854519230769232,0.0015743118624455229,0.009000000000000008,0.985453180599589,0.026586538461538467,0.001638541664707446,0.006999999999999999,0.02663698267735755,-0.02089423076923077,0.0010734404540001382,0.005000000000000001,0.020921786583515137,0.9860338415772337,0.0015762037586620039,0.009044047907614705,0.9860351013801923,Mirovanje
-0.98525,0.00133553504115536,0.007000000000000006,0.9852509051778872,0.026951923076923085,0.0014831087911513885,0.006999999999999999,0.02699269844292655,-0.020990384615384612,0.0010423272067432373,0.005000000000000001,0.02101624829287312,0.9858437252173393,0.0013356889546975684,0.007002859561972885,0.9858446300586035,Mirovanje
-0.985423076923077,0.001261045870058078,0.006000000000000005,0.98542388380292,0.026807692307692314,0.001428264971355934,0.006999999999999999,0.026845713022609543,-0.02094230769230769,0.0011165444897688294,0.006000000000000002,0.020972050998338793,0.986011739651661,0.001264622119492252,0.006117836501801088,0.9860125506300618,Mirovanje
-0.9854807692307693,0.0012933317828738762,0.006000000000000005,0.9854816179060719,0.02650961538461539,0.001400516335469587,0.006000000000000002,0.026546584598515752,-0.02065384615384615,0.0009584565995674701,0.005000000000000001,0.020676073128135332,0.986055042553732,0.0013013220097712254,0.006146664152301029,0.9860559012472951,Mirovanje
-0.8486346153846154,0.34716082112596186,1.021,0.9168976748546406,0.02472115384615385,0.0042504676909389605,0.015000000000000001,0.025083897685107135,-0.15446153846153846,0.33926129942853905,0.9959999999999999,0.37276882401006406,0.9900436067360681,0.010039969711461108,0.03410348188565282,0.9900945127768203,Mirovanje
-0.34090384615384617,0.489053747227761,1.022,0.5961451165613957,0.019557692307692314,0.005366969713471974,0.016,0.02028072218407649,-0.6516057692307692,0.4786765492614714,0.9979999999999999,0.8085303440859175,1.0046487716193493,0.014229219364826493,0.03613178176959597,1.004749533465928,Mirovanje
0.029548076923076934,0.0013436446394637842,0.007000000000000003,0.029578611035159016,0.015903846153846157,0.0015160629095001732,0.008,0.01597594345354193,-1.0148365384615383,0.0013163949673480103,0.007000000000000117,1.014837392241884,1.0153931799567046,0.0013220399838910811,0.007071092261422773,1.0153940406031088,Mirovanje
0.029317307692307705,0.0011624280215675475,0.006000000000000002,0.02934034371357584,0.01616346153846154,0.0015511197997369818,0.008,0.016237717251463075,-1.0144423076923077,0.0013360887455909037,0.007000000000000117,1.0144431875512943,1.014996406316229,0.001339837729250394,0.007069609335051297,1.014997290636778,Mirovanje
0.0291923076923077,0.0013014557165914329,0.005000000000000001,0.029221304135589418,0.01607692307692308,0.0015485247799382612,0.007000000000000001,0.0161513276425,-1.0141538461538462,0.0011160475483497569,0.0050000000000001155,1.0141544602429993,1.0147032844096677,0.0011242059430589184,0.005131744606059696,1.0147039071723185,Mirovanje
0.029336538461538473,0.0013630464812540955,0.005000000000000001,0.029368186607541577,0.015971153846153847,0.001547061300866599,0.007000000000000001,0.016045907697794907,-1.0142403846153845,0.0012747186138041134,0.006000000000000005,1.0142411856616294,1.0147923472953366,0.001279101868597504,0.005996705649593981,1.0147931534213113,Mirovanje
0.02950000000000001,0.0011602387022306424,0.005000000000000001,0.02952280735035464,0.016067307692307693,0.001374663756628137,0.006999999999999999,0.01612600622978538,-1.0144423076923077,0.0014333052380164724,0.006000000000000005,1.0144433202500767,1.0149999267899987,0.0014292820108408272,0.005996705649593981,1.0150009331181766,Mirovanje
0.029692307692307702,0.0013803352649943352,0.006000000000000002,0.0297243748721224,0.015798076923076925,0.0013256334312632735,0.008,0.01585359701965262,-1.0144807692307691,0.0012008071742884091,0.006000000000000005,1.0144814799082942,1.0150399523755722,0.0012013152455784392,0.005908085196154156,1.0150406632627695,Mirovanje
0.029442307692307705,0.0015800859462804977,0.007000000000000003,0.029484676593887777,0.015750000000000004,0.001356962104793702,0.008,0.015808347356819,-1.014298076923077,0.0012624747346467247,0.006000000000000005,1.0142988626101814,1.014849651075357,0.0012721652934265248,0.0059968017793774475,1.0148504484367673,Mirovanje
0.029153846153846162,0.0012917581249035897,0.007000000000000003,0.02918244994196657,0.015951923076923082,0.001368462133004584,0.006999999999999999,0.01601051337282907,-1.0143173076923075,0.001310199801827982,0.006000000000000005,1.0143181538884594,1.0148633172268473,0.0013101824639242152,0.0059968017793774475,1.0148641629453516,Mirovanje
0.029278846153846162,0.001464035064006,0.006999999999999999,0.029315426498163568,0.01574038461538462,0.0015127356288658761,0.006999999999999999,0.015812908553554494,-1.0141826923076922,0.0012691943467967618,0.006000000000000005,1.0141834864711459,1.0147295097052078,0.0012683342973259205,0.006041246546396817,1.0147303023653436,Mirovanje
0.029307692307692316,0.0015570986523074737,0.006999999999999999,0.029349026979022398,0.015375000000000003,0.0014357221447491425,0.006999999999999999,0.01544188858517387,-1.0139134615384615,0.0013017043334020396,0.006000000000000005,1.013914297129238,1.0144556710817665,0.0013079146806018723,0.006142083149888178,1.014456514213778,Mirovanje
0.02987500000000001,0.0014786135657848798,0.007000000000000003,0.02991156838209797,0.015461538461538464,0.001343954246896627,0.005999999999999998,0.015519838421046291,-1.013903846153846,0.0013120684694935209,0.006000000000000005,1.0139046951115427,1.0144636817888573,0.001317728469419013,0.006022680975196426,1.0144645376142643,Mirovanje
0.029903846153846163,0.0014177394708128116,0.007000000000000003,0.029937434759845404,0.015730769230769236,0.0013389919373484008,0.006,0.015787653403846944,-1.0139615384615384,0.0012474826723251438,0.006000000000000005,1.0139623058537766,1.0145262441387954,0.0012480568643756854,0.006053968066786819,1.0145270118100886,Mirovanje
0.02954807692307693,0.0011919586958214524,0.006000000000000002,0.029572108740916928,0.015836538461538464,0.0013524235860901783,0.006,0.015894181325252332,-1.01425,0.001419303729623462,0.006000000000000005,1.014250993059941,1.0148054991409194,0.0014179040204901235,0.0060728804771652545,1.0148064897006037,Mirovanje
0.02952884615384616,0.001293153054547375,0.008000000000000004,0.029557148035627524,0.015778846153846157,0.0014071023879510386,0.006,0.015841462150853473,-1.014375,0.0015266069717362872,0.006000000000000005,1.014376148750475,1.0149291696166571,0.0015260203687490136,0.006086720632960674,1.0149303168577253,Mirovanje
0.02929807692307693,0.0015434714101928936,0.009000000000000001,0.02933870507341139,0.01595192307692308,0.0016949007668496275,0.009000000000000001,0.01604171245414711,-1.014298076923077,0.001371970843014828,0.006000000000000005,1.0142990048076779,1.0148490884362373,0.0013765928338682844,0.0060891773207307764,1.014850022076017,Mirovanje
0.029365384615384627,0.001513132844768482,0.008,0.02940434295500215,0.01616346153846154,0.001787298008614577,0.009000000000000001,0.01626197783410502,-1.0146442307692307,0.0015122466045256633,0.007000000000000117,1.014645357710307,1.015200461620575,0.0015139207841784778,0.0070275939912491925,1.0152015904394402,Mirovanje
0.029557692307692316,0.0013924723659523115,0.006000000000000002,0.02959047403888883,0.01597115384615385,0.0015408335080106103,0.008,0.016045308444430823,-1.0146346153846153,0.0014548175428005534,0.007000000000000117,1.01463565836746,1.0151928236166623,0.001448511277327456,0.007056757397563285,1.0151938570084496,Mirovanje
0.029596153846153852,0.0014644454894996864,0.006000000000000002,0.02963236276568109,0.015817307692307696,0.0015365071721084901,0.006999999999999999,0.015891761290778218,-1.0142403846153845,0.0012441802391356435,0.008000000000000007,1.0142411477401372,1.014797608974581,0.0012424124534162904,0.008082589660540318,1.0147983695144718,Mirovanje
0.029807692307692316,0.0015195958665491086,0.008000000000000004,0.029846401664316125,0.01555769230769231,0.0014795199525321815,0.006999999999999999,0.015627884349161573,-1.014201923076923,0.0013824435424020058,0.008000000000000007,1.014202865270591,1.0147613282995052,0.001391751572390559,0.008082589660540318,1.014762282697093,Mirovanje
0.029692307692307702,0.0014681026679994088,0.008000000000000004,0.029728579877593572,0.015442307692307696,0.0013432661334692555,0.006999999999999999,0.01550062033498114,-1.014326923076923,0.0014964207790354256,0.007000000000000117,1.0143280268995065,1.014880846386537,0.0015071442862884929,0.007108386915360088,1.014881965474879,Mirovanje
0.029384615384615394,0.001409498630908361,0.006000000000000002,0.02941840083506083,0.015701923076923082,0.0014668110864435166,0.006999999999999999,0.015770286081010804,-1.0144230769230769,0.0014851334289467544,0.007000000000000117,1.014424164053373,1.0149720631273818,0.0014966352595903627,0.006980854530425962,1.0149731665645914,Mirovanje
0.029557692307692316,0.001543141919023821,0.007000000000000003,0.02959794691424494,0.015817307692307693,0.001651132612882879,0.006999999999999999,0.01590325317469547,-1.0143942307692306,0.001204305331450857,0.004999999999999893,1.0143949456544186,1.0149505388322297,0.0012088905964367088,0.005157873128839752,1.0149512587766505,Mirovanje
0.029403846153846162,0.0014312395835645861,0.007000000000000003,0.02943865851876772,0.01555769230769231,0.0016631002275461046,0.006999999999999999,0.01564633159266709,-1.0143846153846154,0.0011710259498183375,0.006000000000000005,1.0143852913123144,1.0149323197083044,0.0011610124810797482,0.0059103115505032555,1.014932983767136,Mirovanje
0.029355769230769237,0.0013722403721845725,0.007000000000000003,0.029387824532775997,0.015375000000000007,0.001415487820233989,0.006,0.015440020426451215,-1.0144230769230769,0.0012144348772189944,0.006000000000000005,1.0144238038641216,1.014966122724857,0.0012091437310986493,0.005912780547524976,1.0149668429597551,Mirovanje
0.029336538461538473,0.0015480171990390514,0.007000000000000003,0.029377352606282377,0.015567307692307696,0.0014920586132338917,0.006999999999999999,0.015638647885680774,-1.0145576923076922,0.0011995746287500543,0.004999999999999893,1.0145584014732714,1.0151034034464437,0.0011943472244033532,0.005065060062876547,1.015104106066883,Mirovanje
0.0293173076923077,0.0014561832558288167,0.007000000000000003,0.02935344954174892,0.015663461538461543,0.0014047349662636675,0.008,0.015726325307976678,-1.0145192307692308,0.0012479272756082812,0.006000000000000005,1.0145199982864195,1.0150656300766567,0.0012393013551738159,0.00585072564026734,1.0150663866126044,Mirovanje
0.02955769230769232,0.0014924613322972113,0.009000000000000005,0.02959534786726818,0.015673076923076925,0.0013260866929276395,0.006,0.01572907645584591,-1.0141634615384614,0.0012942964893589287,0.007000000000000117,1.0141642874421661,1.014717108476959,0.0012962055294561076,0.007073629036735474,1.0147179363668581,Mirovanje
0.029701923076923084,0.0034077959482416297,0.035,0.02989677754695826,0.015451923076923082,0.0015681922940143271,0.006999999999999999,0.015531295948701573,-1.0145192307692308,0.0013371954666301894,0.007000000000000117,1.0145201120196226,1.015078448823493,0.0013560560229742104,0.007073629036735474,1.0150793546092078,Mirovanje
0.02959615384615386,0.003341232012438937,0.036,0.0297841594450163,0.015423076923076927,0.0015044313242775344,0.006999999999999999,0.015496277468625018,-1.014673076923077,0.001204497243445355,0.004999999999999893,1.0146737918396007,1.015228376853995,0.0012155022778708485,0.0050956097596477345,1.01522910449582,Mirovanje
0.02929807692307693,0.0012925809578298675,0.006999999999999999,0.02932657629050955,0.01574038461538462,0.0012934390080153071,0.006,0.015793438267448046,-1.014375,0.001279930136314539,0.004999999999999893,1.0143758075024039,1.01492173734661,0.0012754123738219145,0.005158013305005538,1.0149225387266678,Mirovanje
0.029538461538461548,0.0012319705675420739,0.007000000000000003,0.029564141481505286,0.015836538461538464,0.001301704333402034,0.006,0.01588994602304818,-1.0146153846153845,0.0011792084397504584,0.004999999999999893,1.0146160698662174,1.015170384476689,0.0011783710681462511,0.00508788836891827,1.0151710683805577,Mirovanje
0.029538461538461548,0.0013150246920983657,0.008,0.029567718883945035,0.015788461538461543,0.0013131954342445417,0.006,0.01584297951775486,-1.0146826923076924,0.0012189562297067315,0.007000000000000117,1.0146834244842462,1.0152370152856978,0.001226669011872427,0.007082749519740972,1.0152377563522137,Mirovanje
0.029625000000000012,0.001468826716490724,0.006999999999999999,0.029661390340357897,0.015817307692307696,0.0011499533692629846,0.004999999999999999,0.01585905468130479,-1.0144807692307691,0.0013227358683859769,0.008000000000000007,1.0144816315583198,1.0150381816664902,0.0013334994276635703,0.00800760721015803,1.0150390576039614,Mirovanje
0.02954807692307693,0.001486346887844798,0.006000000000000002,0.029585436906070475,0.015778846153846154,0.001270650429816517,0.004999999999999999,0.015829925409222192,-1.0142596153846155,0.0013727792717673419,0.006999999999999895,1.0142605443982708,1.0148144935534937,0.001371208309355922,0.007067390405946616,1.014815419935301,Mirovanje
0.028951923076923087,0.0013614175848124946,0.006000000000000002,0.028983914637127742,0.01572115384615385,0.0015717257221163398,0.009000000000000001,0.01579952530932496,-1.0145,0.0014544361847068496,0.006000000000000005,1.0145010425744347,1.015036928644565,0.0014460913234213653,0.00606090801175152,1.0150379587445524,Mirovanje
0.0293173076923077,0.0014952773287724348,0.007000000000000003,0.0293554149113138,0.015759615384615386,0.0015780659554541165,0.009000000000000001,0.015838426980946348,-1.0145961538461539,0.001319376533772603,0.006000000000000005,1.0145970117016145,1.0151443086193725,0.0013133869912621656,0.006084118293002705,1.0151451582447173,Mirovanje
0.029817307692307702,0.0012539508568836697,0.006000000000000002,0.029843663159358148,0.015846153846153847,0.0014462765905356282,0.006,0.015912017712795185,-1.0144903846153848,0.0013727792717673488,0.007000000000000117,1.0144913134177147,1.01505398057271,0.00137042400668965,0.007054106533494808,1.0150549056767626,Mirovanje
0.02973076923076924,0.00133179151486006,0.007000000000000003,0.029760583120838,0.015394230769230773,0.0014703366257083472,0.006,0.015464288886632671,-1.0146538461538461,0.0012767840517459983,0.007000000000000117,1.0146546494706006,1.015207992781818,0.0012749990905697472,0.007054106533494808,1.0152087934167873,Mirovanje
0.029673076923076934,0.0014899813350167258,0.007000000000000003,0.029710461767894797,0.015269230769230775,0.00131727259919567,0.006,0.015325945823492114,-1.0144711538461537,0.001300567411446233,0.004999999999999893,1.0144719875193884,1.0150218318546456,0.0013001822271829762,0.005103196919430175,1.0150226645821188,Mirovanje
0.029798076923076934,0.0015024326920307744,0.007000000000000003,0.029835929553270035,0.01568269230769231,0.0012954389149043351,0.006999999999999999,0.015736104981856215,-1.0146153846153845,0.0014094986309083576,0.006000000000000005,1.0146163636491456,1.0151759368084754,0.0014108160606764737,0.006040263999669726,1.015176917131651,Mirovanje
0.029990384615384627,0.0016611811848784236,0.008000000000000004,0.03003635617560313,0.01557692307692308,0.0016623217526903315,0.009000000000000001,0.015665370922957625,-1.0146634615384615,0.0012527705981534103,0.007000000000000117,1.014664234914873,1.0152287928683732,0.0012626499403619908,0.006999732473511822,1.0152295780530856,Mirovanje
0.029846153846153856,0.0016335969678150232,0.009000000000000001,0.0298908269952763,0.01572115384615385,0.0017675315837088412,0.009000000000000001,0.015820203733006924,-1.0143749999999998,0.0012571908551027061,0.006000000000000005,1.0143757790650594,1.0149385964046378,0.0012677013234581585,0.006060699985644069,1.01493938811067,Mirovanje
0.02959615384615386,0.0014379421110715474,0.006999999999999999,0.029631064780058104,0.01593269230769231,0.001395490147395993,0.006999999999999999,0.015993688659064142,-1.0144903846153845,0.0013008517350899102,0.006000000000000005,1.0144912186373558,1.0150490298930543,0.0013029514189539812,0.0060551774441486295,1.015049866149063,Mirovanje
0.029403846153846162,0.0013120684694935142,0.007000000000000003,0.029433105379957657,0.015692307692307696,0.00133788670237893,0.006999999999999999,0.01574923685574833,-1.0146538461538461,0.0011748095653308797,0.006000000000000005,1.0146545262759672,1.0152028164350226,0.0011812487255930823,0.006070784662143502,1.0152035036612874,Mirovanje
0.029326923076923084,0.001368901213581308,0.007000000000000003,0.02935885399146751,0.01549038461538462,0.0014005163354695867,0.006999999999999999,0.015553567485900512,-1.0145673076923076,0.0012615956248775116,0.007000000000000117,1.0145680920773816,1.0151111683816028,0.0012589907492800197,0.0070836528912952,1.0151119491123968,Mirovanje
0.029615384615384623,0.0014298177150339313,0.008000000000000004,0.029649880010134685,0.015490384615384621,0.0012859835528593875,0.006,0.01554367296461069,-1.0143365384615384,0.001341716587945041,0.006000000000000005,1.0143374258408975,1.0148888360615627,0.0013360587527529919,0.0061013961127511784,1.014889715493947,Mirovanje
0.02958653846153847,0.0012755886795083832,0.007000000000000003,0.029614023445242707,0.01580769230769231,0.0013014557165914333,0.006,0.01586117659812547,-1.014076923076923,0.0013776534375824798,0.006000000000000005,1.0140778588679242,1.0146332087070031,0.0013867021228107174,0.006120884030697882,1.014634156311449,Mirovanje
0.02946153846153847,0.0013295681551879694,0.006000000000000002,0.029491524206117253,0.01616346153846154,0.0013595147389579075,0.006,0.016220535417512248,-1.0141346153846154,0.0013377484838029646,0.006000000000000005,1.0141354976985608,1.0146929795244441,0.0013493573820601119,0.006120884030697882,1.0146938767241767,Mirovanje
0.029701923076923084,0.0014065766385933922,0.006000000000000002,0.02973520963954504,0.015923076923076925,0.0015547217639544414,0.008,0.015998798031775337,-1.0143076923076924,0.0012015768732164041,0.004999999999999893,1.014308404017998,1.0148695670206747,0.0012019266101122251,0.005130712227655598,1.0148702787510862,Mirovanje
0.029711538461538473,0.0013349811070622,0.007000000000000003,0.0297415146269939,0.015567307692307696,0.0015978616905879311,0.008,0.015649096803625147,-1.0145576923076922,0.001215500237927729,0.004999999999999893,1.0145584204280886,1.0151141607433851,0.0012169810468465171,0.005172194624664339,1.0151148902388414,Mirovanje
0.029807692307692316,0.0013234346564680963,0.006000000000000002,0.029837057495671386,0.015605769230769236,0.0013827110301503377,0.006999999999999999,0.015666905344608524,-1.0148942307692308,0.001142856317360229,0.004999999999999893,1.0148948742452248,1.0154535887236587,0.001147536731730144,0.005188408654347887,1.0154542371236173,Mirovanje
0.02971153846153847,0.0013564169211217193,0.006000000000000002,0.02974248450643262,0.015788461538461543,0.0013493094880992116,0.007000000000000001,0.015846013815662092,-1.0147980769230769,0.001243288193680126,0.004999999999999893,1.014798838535159,1.0153574923663025,0.0012477685615129106,0.005131617706827241,1.0153582590547876,Mirovanje
0.02951923076923078,0.0013656554444293068,0.006000000000000002,0.029550803711574414,0.01568269230769231,0.0014362372251351466,0.007000000000000001,0.015748321033831364,-1.014701923076923,0.001223800886364884,0.004999999999999893,1.014702661071023,1.0152542785271683,0.0012247172240769828,0.005058898221451225,1.0152550172247363,Mirovanje
0.029365384615384627,0.001301313628516705,0.007000000000000003,0.029394204033605514,0.015509615384615389,0.0014141808739969223,0.006,0.01557395508286437,-1.0146442307692307,0.001151239041798424,0.004999999999999893,1.0146448838803728,1.0151893913553378,0.0011434036411317539,0.00503924341439399,1.0151900352605454,Mirovanje
0.029346153846153855,0.0014396128670933,0.007000000000000003,0.02938144364678548,0.015788461538461543,0.001633030906268587,0.009000000000000001,0.015872690625483372,-1.0146057692307693,0.0012358294414214267,0.004999999999999893,1.0146065218747458,1.0151552046013637,0.0012313975776104536,0.0051740871585232995,1.0151559514524016,Mirovanje
0.029538461538461548,0.0016751755184909666,0.007000000000000003,0.029585924408017456,0.01579807692307693,0.001558967901260242,0.009000000000000001,0.015874810719646876,-1.0145480769230768,0.0012925809578298623,0.004999999999999893,1.0145489003265669,1.015103515642932,0.0012884958934854585,0.0051740871585232995,1.0151043334023886,Mirovanje
0.02960576923076924,0.001577597182370229,0.007000000000000003,0.029647772000866855,0.015673076923076925,0.0013898139588580506,0.006,0.015734577308492374,-1.0145096153846151,0.0013300895885651831,0.007000000000000117,1.0145104873022033,1.0150646901790168,0.001330753780007525,0.006962042678894109,1.0150655624903477,Mirovanje
0.02973076923076924,0.0014293003212355417,0.008,0.029765106054935174,0.015875000000000004,0.001418880246478241,0.006,0.015938282409150812,-1.0147211538461538,0.0014308196331072748,0.007000000000000117,1.014722162617774,1.0152827090823313,0.0014416416856731884,0.006962042678894109,1.0152837326049835,Mirovanje
0.029894230769230777,0.0014736027882420663,0.009000000000000001,0.029930528536287804,0.015836538461538464,0.0014013082961391481,0.006999999999999999,0.01589841549918153,-1.0147980769230769,0.0012662771577489282,0.006000000000000005,1.014798866960648,1.0153638266675837,0.001279075221492517,0.006085739593272077,1.0153646323062773,Mirovanje
0.02973076923076924,0.0015764539639937843,0.008000000000000004,0.029772535097869077,0.015701923076923082,0.0014602410739610226,0.008,0.01576967635392979,-1.0148846153846152,0.0011792084397504654,0.0050000000000001155,1.0148853004536635,1.0154436706188297,0.0011880301099782703,0.005054500846916721,1.015444365593401,Mirovanje
0.029423076923076934,0.001478644829749314,0.007000000000000003,0.029460207843018456,0.015788461538461543,0.0016506005720708782,0.008,0.015874507866387545,-1.0147115384615384,0.0013705212155843793,0.007000000000000117,1.014712464009083,1.0152632061258262,0.0013822983204590704,0.007085015533001338,1.0152641471368613,Mirovanje
0.02950961538461539,0.0015190786194502922,0.008,0.029548688634184767,0.01593269230769231,0.001588809563290191,0.006999999999999999,0.016011714461605913,-1.014605769230769,0.0013474924663038341,0.007000000000000117,1.0146066640291238,1.0151622309362598,0.0013518775180267775,0.007085015533001338,1.0151631310741676,Mirovanje
0.029576923076923087,0.0014980263149346495,0.008,0.029614835159738125,0.01618269230769231,0.0013065252144886736,0.006,0.016235348424396022,-1.0149134615384616,0.0012942964893589539,0.006000000000000005,1.014914286831841,1.0154752453800968,0.0012886565161251914,0.005951607212286714,1.015476063044021,Mirovanje
0.02962500000000001,0.0013386811822432953,0.007000000000000003,0.029655230437609016,0.016086538461538465,0.0013090702581711963,0.007000000000000001,0.016139714514680385,-1.0149615384615385,0.0012241408048338262,0.007000000000000117,1.0149622766767852,1.015522945189545,0.0012222714096739218,0.007025122554783492,1.0155236807449868,Mirovanje
0.02973076923076924,0.0014691099426757137,0.008000000000000004,0.029767044244884695,0.015807692307692314,0.0014147364736730402,0.008,0.01587087317650215,-1.0148076923076923,0.00109260559318014,0.006000000000000005,1.0148082804913676,1.015368218491775,0.0010902151838171142,0.006025696287016213,1.0153688037813196,Mirovanje
0.02947115384615386,0.0015501658147612592,0.008000000000000004,0.029511894603310763,0.015538461538461544,0.0014866267761605918,0.005999999999999998,0.01560941530467577,-1.0149038461538462,0.0012130637529161683,0.004999999999999893,1.0149045711107711,1.0154528206191524,0.0012096806920696265,0.005035028967192989,1.0154535411483723,Mirovanje
0.029346153846153855,0.0013851494696437772,0.007000000000000003,0.029378825446490956,0.01574038461538462,0.0015871793577316548,0.009000000000000001,0.015820203733006924,-1.0149134615384614,0.001193818831467685,0.004999999999999893,1.0149141636687236,1.0154618363099575,0.0011886312140781767,0.005035028967192989,1.0154625319755297,Mirovanje
0.029355769230769237,0.0014068395378319092,0.008,0.02938946043423364,0.015798076923076925,0.0015651235371019544,0.009000000000000001,0.015875416408833064,-1.0146442307692307,0.0010912084799641062,0.004999999999999893,1.0146448175441645,1.0151939094547007,0.001095995474827631,0.005043037354387492,1.0151945010686376,Mirovanje
0.029750000000000013,0.001555078528811079,0.008,0.02979061545572312,0.015567307692307696,0.0014395807554560076,0.006999999999999999,0.01563372833135019,-1.014625,0.0013242378069028178,0.006000000000000005,1.014625864164111,1.0151826272974125,0.0013310503601454266,0.006089586783472933,1.01518349989622,Mirovanje
0.03012500000000001,0.0013059589756779673,0.006000000000000002,0.03015329424534165,0.01579807692307693,0.0013328671214016834,0.006999999999999999,0.0158542035192806,-1.01475,0.0013710607908870055,0.006000000000000005,1.014750926241357,1.0153216967016438,0.0013680049942165708,0.006118721815060457,1.0153226182996067,Mirovanje
0.029701923076923084,0.0013507818796499058,0.006000000000000002,0.02973262259125229,0.015625000000000003,0.001455675233221815,0.009000000000000001,0.015692661195113318,-1.014673076923077,0.0013476639881113118,0.006000000000000005,1.014673971889872,1.0152298998525466,0.0013446701066113314,0.00605564324750496,1.0152307903586788,Mirovanje
0.029423076923076934,0.001504431324277534,0.008,0.029461513356084903,0.015509615384615389,0.001550404366036439,0.009000000000000001,0.015586915123812122,-1.0144326923076923,0.0012917223376690315,0.006000000000000005,1.0144335147111567,1.0149801088772517,0.0012911409918696364,0.006067424900853879,1.0149809300974764,Mirovanje
0.02950961538461539,0.0015063659295169508,0.008,0.029548037810682767,0.015701923076923082,0.00154968860204675,0.008,0.015778210388916834,-1.0144903846153848,0.0012784846221187405,0.006000000000000005,1.0144911902032465,1.0150432490864387,0.0012711984834264548,0.006054585111306077,1.0150440450845166,Mirovanje
0.029673076923076934,0.0013188158127384556,0.008,0.02970236975782857,0.016153846153846154,0.0016453268950928797,0.008,0.016237421166978645,-1.0146346153846153,0.0014415382563007942,0.006000000000000005,1.0146356394140859,1.0151991445073685,0.0014360975323371129,0.0061010404621326675,1.0152001602563974,Mirovanje
0.02960576923076924,0.001289143045941531,0.006000000000000002,0.02963382293155005,0.01589423076923077,0.0016403462886675978,0.007000000000000001,0.01597865162309723,-1.0146826923076921,0.0014092034239033316,0.006000000000000005,1.0146836708664808,1.015241080994256,0.0014071794207389135,0.0061010404621326675,1.0152420562074385,Mirovanje
0.029307692307692316,0.0013663322821793546,0.007000000000000003,0.029339524404933565,0.01530769230769231,0.0015446988944633235,0.006999999999999999,0.01538543267059911,-1.0147596153846155,0.0014708395843327862,0.008999999999999897,1.0147606813355625,1.0153002572160985,0.0014653710482756823,0.00902379141006926,1.0153013146920398,Mirovanje
0.029365384615384627,0.00138020129738447,0.007000000000000003,0.02939780211564751,0.015403846153846159,0.001404109564328601,0.006999999999999999,0.01546770829825802,-1.0146538461538461,0.0013499945211372386,0.008999999999999897,1.0146547442356932,1.0151974791027423,0.0013450623285418159,0.00902379141006926,1.0151983701569023,Mirovanje
0.029634615384615395,0.0015003697769068868,0.008000000000000004,0.029672572157828488,0.015480769230769235,0.0012087880869090558,0.006999999999999999,0.015527890539779852,-1.0144230769230769,0.0011493502151910674,0.004999999999999893,1.0144237280347892,1.0149757411924287,0.001149658191199729,0.005084105585111409,1.0149763922984005,Mirovanje
0.029576923076923087,0.001560894145207925,0.008000000000000004,0.02961808179526097,0.015423076923076928,0.001356553237580646,0.008,0.015482620529533702,-1.0143557692307692,0.0013439198495930405,0.006000000000000005,1.0143566595100106,1.01490618446842,0.0013460043660976106,0.006083547763160224,1.0149070770272517,Mirovanje
0.02922115384615385,0.0014673152535343036,0.008,0.02925797064312298,0.015576923076923082,0.0013494465225268337,0.006999999999999999,0.015635265858358102,-1.0144423076923075,0.0012847247765491576,0.006000000000000005,1.0144431212018967,1.0149845762006733,0.0012832042711163581,0.006041078850016701,1.0149853873521832,Mirovanje
0.029403846153846162,0.0013047194715371897,0.006999999999999999,0.02943277869210553,0.015711538461538468,0.0012532502123177786,0.004999999999999999,0.01576144272974644,-1.0144711538461537,0.0011681406228673385,0.004999999999999893,1.0144718263897037,1.0150204084168684,0.0011698607509571795,0.005100320585608609,1.0150210825775605,Mirovanje
0.029750000000000013,0.0010808650381843377,0.004,0.02976962830185774,0.015625000000000003,0.0013169567191065924,0.006,0.015680401780566722,-1.0147307692307692,0.0010672643788855087,0.004999999999999893,1.0147313304894665,1.0152884465815375,0.001071953451568376,0.005147490027062052,1.015289012471894,Mirovanje
0.02954807692307693,0.0010640977370913064,0.005000000000000001,0.02956723108182695,0.015798076923076925,0.0014960191258309738,0.007000000000000001,0.015868752556275737,-1.014875,0.0010065888703170462,0.004999999999999893,1.0148754991850744,1.0154296117642745,0.001010376141347811,0.005147490027062052,1.0154301144380602,Mirovanje
0.02946153846153847,0.0011512791959304432,0.006000000000000002,0.02948402435739891,0.01582692307692308,0.0014573573798297996,0.008,0.015893878841094288,-1.0147980769230769,0.0009842979506334963,0.004999999999999893,1.014798554280223,1.0153507027617272,0.0009895693106937607,0.005084105585111409,1.0153511849828876,Mirovanje
0.029451923076923084,0.0014470115602929028,0.008,0.029487448438015373,0.015788461538461543,0.0013564169211217197,0.006999999999999999,0.015846620605522953,-1.0148076923076923,0.0009615384615384661,0.004999999999999893,1.0148081478403082,1.0153596780076346,0.0009623924922052995,0.005024773975639274,1.0153601341017269,Mirovanje
0.029451923076923084,0.0016105410443764856,0.008,0.029495925403089412,0.01574038461538462,0.0013657569914751722,0.007000000000000001,0.01579952530932496,-1.0149230769230768,0.0011067303515337054,0.004999999999999893,1.014923680344033,1.0154745180998126,0.0011021018169972859,0.005112391141644412,1.0154751161591609,Mirovanje
0.02950961538461539,0.0014675672721292377,0.007000000000000003,0.029546085254161063,0.015394230769230773,0.0013186405385177894,0.007000000000000001,0.015450603672548004,-1.0147307692307692,0.0014559610177498192,0.007000000000000117,1.0147318137548234,1.015278398954005,0.0014555999581522972,0.007095921662987559,1.0152794423969422,Mirovanje
0.02962500000000001,0.0013242378069028117,0.007000000000000003,0.02965458195235992,0.015442307692307696,0.001413036304428565,0.005999999999999998,0.015506822319919013,-1.014730769230769,0.0015394227766299534,0.008000000000000007,1.0147319369400736,1.0152824130126736,0.001543192323517835,0.00808016229053532,1.015283585810085,Mirovanje
0.02951923076923078,0.0014543090431195869,0.007000000000000003,0.029555033412263298,0.015798076923076925,0.0014031544660589943,0.006999999999999999,0.015860267239964053,-1.0146442307692307,0.001379229643055866,0.008000000000000007,1.01464516817836,1.0151984732972712,0.0013875155873470126,0.00799563552858129,1.0151994214855597,Mirovanje
0.029115384615384623,0.0013679553264445185,0.006000000000000002,0.02914750286177056,0.01580769230769231,0.0014549446399521335,0.006,0.015874507866387545,-1.0142115384615384,0.0011983408154857917,0.006000000000000005,1.0142122464105976,1.0147544539914655,0.001206564043222104,0.006026693643204517,1.0147551713060188,Mirovanje
0.029221153846153855,0.001329811516207862,0.007000000000000003,0.029251397073801977,0.015903846153846157,0.001390346046916923,0.006,0.01596450389505996,-1.0144134615384615,0.0011978392158308296,0.006000000000000005,1.0144141687541783,1.014960676928595,0.0011998638520130474,0.006011385049402351,1.014961386154476,Mirovanje
0.02951923076923078,0.001315446467281745,0.006000000000000002,0.029548525929653152,0.01590384615384616,0.0011645338351694372,0.006999999999999999,0.015946424725889547,-1.0146923076923076,0.0011773252203856946,0.006000000000000005,1.014692990704388,1.0152476973349465,0.0011757069609403743,0.005954101818181234,1.0152483780980737,Mirovanje
0.029653846153846163,0.001378190220551455,0.008000000000000004,0.029685855217594793,0.015567307692307696,0.0012228939751900872,0.005999999999999998,0.015615266198868927,-1.0147692307692306,0.0010851335368973797,0.004999999999999893,1.014769810957524,1.0153234332013787,0.0010870884951138411,0.004936457311470077,1.0153240151642384,Mirovanje
0.029721153846153855,0.0014508401463212666,0.008000000000000004,0.029756544205887265,0.015586538461538464,0.0015726666288326295,0.006999999999999999,0.01566567781931128,-1.0148461538461537,0.0010073692964391334,0.004999999999999893,1.0148466538197929,1.0154031631432376,0.0010061970749511658,0.005040646597854304,1.015403661680342,Mirovanje
0.03010576923076924,0.0013439198495930392,0.006000000000000002,0.030135750555419415,0.01568269230769231,0.0016423741204364157,0.006999999999999999,0.015768456829037863,-1.014875,0.0011904063624209615,0.006000000000000005,1.014875698148452,1.0154447656343009,0.0011909368224783487,0.006072977070418206,1.0154454640130188,Mirovanje
0.029913461538461545,0.0013875169917398717,0.006000000000000002,0.02994562379739959,0.015557692307692312,0.0013855498983111577,0.006999999999999999,0.015619268179448692,-1.0148653846153843,0.0013305413321976847,0.006000000000000005,1.0148662568194733,1.0154272256625931,0.0013306152767776456,0.006045323892452936,1.0154280974809817,Mirovanje
0.029548076923076934,0.0015120020330439353,0.008,0.029586736893412225,0.015653846153846154,0.001452909751348008,0.006999999999999999,0.015721127381770245,-1.0148557692307691,0.001303975203506929,0.006000000000000005,1.0148566069609577,1.0154086721694713,0.0013000082662428802,0.005997133724691572,1.0154095043569669,Mirovanje
0.029798076923076934,0.0014766112952160982,0.008,0.029834640424023368,0.01557692307692308,0.0016390212117432703,0.006999999999999999,0.01566291553565054,-1.0146730769230767,0.0013333179239740703,0.006000000000000005,1.0146739529372135,1.0152324321299964,0.001331244887656411,0.005997133724691572,1.0152333049410556,Mirovanje
0.02958653846153847,0.0015292694140760163,0.006000000000000002,0.029626034548635143,0.015615384615384618,0.00158300889440436,0.008,0.015695418243747244,-1.0146634615384613,0.0012604225247227234,0.006000000000000005,1.014664244391293,1.0152172180043277,0.0012558625045892135,0.006000334544813635,1.0152179947789917,Mirovanje
0.029548076923076934,0.0015804077351960332,0.006000000000000002,0.029590311564117375,0.01574038461538462,0.0014209638678057469,0.007000000000000001,0.015804393254846772,-1.0146538461538461,0.0011073984652990756,0.006000000000000005,1.0146544504638777,1.0152082564346598,0.0011024054005572064,0.006000334544813635,1.015208854980476,Mirovanje
0.029798076923076934,0.0014635297669327483,0.006000000000000002,0.02983399583851127,0.015423076923076928,0.0014121199808219862,0.005999999999999998,0.015487588082570657,-1.0147692307692309,0.0011454825086027259,0.004999999999999893,1.0147698772855616,1.0153258199387325,0.0011471286772788778,0.005130712227655598,1.015326467959179,Mirovanje
0.5191442307692308,0.48931970865111113,0.985,0.713403469023935,0.012442307692307695,0.00325170642502613,0.011,0.012860194997923452,-0.5047596153846154,0.5102992804979987,1.025,0.7177657173479379,1.0120686755212693,0.0038098896824604713,0.013561380488769093,1.0120758465800719,Mirovanje
1.0086634615384615,0.0014910668413735792,0.008000000000000007,1.0086645636300886,0.009903846153846152,0.0017894951521052757,0.008,0.010064216886497505,0.006134615384615386,0.0011607167241017367,0.004999999999999999,0.00624345811476054,1.0087329960266136,0.001487911629762781,0.008011321496786739,1.0087340933833089,Mirovanje
1.0088461538461537,0.0015365372581106198,0.006999999999999895,1.0088473239677662,0.010288461538461536,0.0015043084082003424,0.008,0.010397854808343142,0.006750000000000002,0.0010261016593810844,0.004999999999999999,0.006827546017082904,1.0089228405904689,0.001534790217945102,0.007022795033351903,1.008924007964006,Mirovanje
1.0086634615384613,0.0015665406334382137,0.006999999999999895,1.0086646780235282,0.010288461538461536,0.001276059717398392,0.007,0.010367293245142111,0.006682692307692308,0.0012729766983555562,0.006,0.006802855735192842,1.0087396811984561,0.001564571292463644,0.0070441657944428915,1.0087408945352083,Mirovanje
1.0084807692307691,0.00152530431535411,0.007000000000000117,1.0084819227242194,0.010259615384615383,0.001308222460408458,0.007,0.010342686007326813,0.006798076923076924,0.0015024326920307742,0.006,0.006962122797405533,1.0085578376878976,0.0015227631276251872,0.007023242141837471,1.008558987253215,Mirovanje
1.008576923076923,0.0013565532375806445,0.007000000000000117,1.008577835370181,0.010451923076923074,0.0012316328100120688,0.006,0.010524239420718982,0.006826923076923078,0.0014374276416056811,0.007,0.006976609271205958,1.0086559610775199,0.0013545756134189526,0.007023242141837471,1.008656870641502,Mirovanje
1.0087307692307692,0.0011370573460841972,0.006000000000000005,1.0087314100851166,0.010211538461538463,0.0014654552779247933,0.009000000000000001,0.010316156111802349,0.006759615384615386,0.0013901797912755766,0.007,0.006901086870921131,1.0088071281868372,0.0011330881064054528,0.00595840600528641,1.008807764526637,Mirovanje
1.0085,0.0011929278784054518,0.006000000000000005,1.008500705541113,0.00985576923076923,0.0015653598089132564,0.009000000000000001,0.009979305509981067,0.0068365384615384625,0.0013163949673480112,0.006,0.006962122797405533,1.0085734047747776,0.0011907771594102715,0.0060001522496735404,1.0085741077229926,Mirovanje
1.0084807692307691,0.0014004173088951934,0.008000000000000007,1.0084817415684446,0.00983653846153846,0.001461759851653248,0.006999999999999999,0.00994455784684421,0.006528846153846155,0.0011431798664692234,0.006,0.006628174130761224,1.0085515800490796,0.0014001358879786924,0.008029802031745303,1.0085525519277614,Mirovanje
1.0084519230769229,0.0015864801854099052,0.008000000000000007,1.0084531709885804,0.009624999999999998,0.0014018360213552904,0.006999999999999999,0.00972654970844077,0.006307692307692309,0.0011100668992047548,0.004999999999999999,0.006404625732174423,1.0085191638901125,0.0015871809320807944,0.008029802031745303,1.0085204128211402,Mirovanje
1.0085673076923076,0.0016970813354614523,0.009000000000000119,1.0085687355013386,0.009721153846153845,0.0013334219336933219,0.005999999999999999,0.009812178461169883,0.006432692307692309,0.0012615956248775038,0.006,0.0065552386566893085,1.0086363371184046,0.0016981387273120577,0.009023559362662192,1.0086377666093855,Mirovanje
1.008903846153846,0.0016143540668807584,0.009000000000000119,1.008905137722609,0.009846153846153845,0.0014396128670933,0.008,0.009950840706655433,0.006605769230769233,0.001212263214236791,0.006,0.00671608287849169,1.0089752685179532,0.001615376798453936,0.009018584585512635,1.0089765616321702,Mirovanje
1.0086923076923076,0.0016412760225655268,0.008000000000000007,1.0086936429781916,0.009634615384615384,0.0014874972030205914,0.008,0.009748767180441922,0.006605769230769233,0.0011554075973336559,0.005999999999999999,0.006706053522464152,1.0087617041815033,0.0016429171704022976,0.00801074469224905,1.0087630420470408,Mirovanje
1.0085673076923076,0.00185930313184662,0.008000000000000007,1.0085690215120857,0.00958653846153846,0.0014318531357534066,0.005999999999999999,0.009692880019732168,0.006596153846153848,0.0011138915736595833,0.005999999999999999,0.006689544080129826,1.0086360687514448,0.001858464568773889,0.007983572802140904,1.008637780908946,Mirovanje
1.0083846153846152,0.0017282032260508384,0.008000000000000007,1.0083860963097266,0.009653846153846152,0.0014791449633099545,0.008,0.009766504768063925,0.006615384615384617,0.001031314436753225,0.004999999999999999,0.006695291112186466,1.0084541405172698,0.0017254688652824646,0.007964748123236332,1.0084556166580811,Mirovanje
1.0081442307692308,0.0018419172141191946,0.010000000000000009,1.0081459133936455,0.010048076923076922,0.001717443357549393,0.009000000000000001,0.010193795247034421,0.006384615384615385,0.0011120640226769968,0.004999999999999999,0.006480740698407861,1.008216602279465,0.0018382170429408291,0.009979166881777024,1.0082182780300335,Mirovanje
1.0083846153846152,0.0018413398774747354,0.010000000000000009,1.0083862965535197,0.010086538461538461,0.0016297155068097297,0.008,0.010217349498242231,0.006509615384615386,0.001278484622118734,0.006,0.006633974328003944,1.0084582039737575,0.0018378686297918527,0.009979166881777024,1.008459878687832,Mirovanje
1.0084326923076923,0.001627671904408984,0.008000000000000007,1.0084340058877275,0.009663461538461537,0.0013978732260877655,0.006999999999999999,0.00976404314111416,0.006605769230769231,0.0012122632142367907,0.006,0.006716082878491691,1.0085023242776365,0.0016274105401352763,0.0080629836481112,1.0085036373451814,Mirovanje
1.0081538461538462,0.0017908379579727437,0.010000000000000009,1.008155436733535,0.009615384615384614,0.0013819418633247446,0.006,0.0097141847118214,0.0065192307692307685,0.001358596343167697,0.007,0.006659290791529819,1.0082226422442606,0.001788804027256089,0.010008490453799812,1.0082242291047394,Mirovanje
1.0083365384615384,0.0016385416647074441,0.008000000000000007,1.0083378697715288,0.009826923076923075,0.0013405101475264189,0.005999999999999999,0.009917932476851443,0.006384615384615386,0.0014761416201842683,0.007,0.006553038050576824,1.0084066090022803,0.001636529319718857,0.007980710605880015,1.008407936951952,Mirovanje
1.0086249999999999,0.0014883360610995116,0.008000000000000007,1.0086260981003965,0.00979807692307692,0.001281374019831144,0.005999999999999999,0.009881509538994068,0.006394230769230769,0.0012512937092248014,0.004999999999999999,0.006515514030137844,1.008694446780685,0.0014882731215113728,0.00802475469761732,1.008695544712614,Mirovanje
1.0086153846153845,0.00172263043665836,0.008000000000000007,1.0086168556684254,0.009663461538461537,0.0012450716454754176,0.005,0.00974334092124936,0.006711538461538463,0.001157526182816322,0.004999999999999999,0.006810625183095557,1.0086854414562374,0.0017201861495670047,0.00802475469761732,1.0086869082357288,Mirovanje
1.008403846153846,0.0015474497057145296,0.008000000000000007,1.0084050334753698,0.00983653846153846,0.0012868460021059607,0.005999999999999999,0.009920355917932661,0.006519230769230771,0.0014004173088951928,0.007,0.006667948594698257,1.008474688420703,0.0015457532878725962,0.008001976681220713,1.0084758730571899,Mirovanje
1.008528846153846,0.00137949775398673,0.006000000000000005,1.0085297896138028,0.009788461538461536,0.0012221755265719727,0.005999999999999999,0.009864466144079582,0.006528846153846155,0.0015501658147612592,0.007,0.006710353653410985,1.008599408209459,0.0013808824904576514,0.00602778275588034,1.0086003534983135,Mirovanje
1.0085192307692308,0.0014674727702280975,0.007000000000000117,1.008520298411337,0.009884615384615382,0.001112064022676997,0.005999999999999999,0.00994697480102909,0.006586538461538463,0.0013200420806453693,0.007,0.006717514421272203,1.00859065331683,0.0014675344337547812,0.007026724498769621,1.0085917209730528,Mirovanje
1.0084326923076923,0.00147911370991682,0.007000000000000117,1.008433777048502,0.010221153846153843,0.0011003210263131145,0.004999999999999999,0.010280208767709551,0.006538461538461539,0.0012929027933824317,0.006,0.006665063909901909,1.0085071158440067,0.001478429417233197,0.0070193140737186965,1.0085081995013916,Mirovanje
1.0085,0.0013797993165117041,0.006000000000000005,1.0085009438994856,0.009980769230769229,0.0013796652968604184,0.005999999999999999,0.010075675201654269,0.006884615384615386,0.0014365268766910074,0.006,0.007032889766059074,1.0085748492783169,0.0013813104664596773,0.006039754989667578,1.0085757951762397,Mirovanje
1.0083173076923075,0.0013028402632246636,0.007000000000000117,1.0083181493876896,0.009865384615384613,0.0014009453697393353,0.005999999999999999,0.009964359564892344,0.006750000000000002,0.00139883193030141,0.006,0.006893419381499342,1.0083901029553488,0.0013032032167677207,0.006989620294354459,1.00839094505897,Mirovanje
1.0083653846153846,0.001421386730164026,0.007000000000000117,1.0083663864046486,0.010134615384615383,0.001233020777070034,0.004999999999999999,0.01020934715007621,0.006740384615384616,0.001337299174769893,0.006999999999999999,0.006871764973145826,1.0084404809240652,0.0014204180672718297,0.006989620294354459,1.0084414812738745,Mirovanje
1.0085096153846154,0.0014999691811429597,0.007000000000000117,1.0085107308456214,0.010124999999999999,0.0013422677424074871,0.005999999999999999,0.010213584468359172,0.006875000000000001,0.0012911496070139616,0.006999999999999999,0.006995190655564172,1.0085855914939776,0.0014996204561171758,0.007012006996522713,1.0085867063523934,Mirovanje
1.0085576923076922,0.0014664643710228028,0.006000000000000005,1.0085587584423474,0.009865384615384613,0.0014146057639694606,0.005999999999999999,0.009966289333394003,0.006750000000000002,0.001299038105676658,0.005999999999999999,0.006873863542433759,1.0086303607007052,0.001463429742554483,0.006034321665117748,1.0086314223510222,Mirovanje
1.0082692307692307,0.0014493418216474435,0.004999999999999893,1.0082702724506423,0.00983653846153846,0.0013090702581711963,0.005999999999999999,0.009923263265990368,0.006586538461538462,0.0013053924912504353,0.007,0.0067146510305107045,1.0083404205528668,0.0014478533308794643,0.005027942352180181,1.0083414600223477,Mirovanje
1.008201923076923,0.00148310879115138,0.006000000000000005,1.0082030139350369,0.010009615384615384,0.0013692726333271613,0.005999999999999999,0.010102836616134486,0.006519230769230771,0.001329985318244364,0.007,0.0066535126639415635,1.0082744908840666,0.001484883372525309,0.00605858558263539,1.0082755842755262,Mirovanje
1.0086346153846153,0.0014146057639694515,0.006000000000000005,1.0086356073734153,0.010317307692307692,0.0014023635479824977,0.006,0.010412178520293509,0.006653846153846154,0.0012917581249035897,0.007,0.006778075515388398,1.0087111286431163,0.0014153382279464299,0.006070948245265662,1.0087121215841361,Mirovanje
1.008778846153846,0.0013654861825712,0.004999999999999893,1.008779770316594,0.010249999999999999,0.0015735188395635871,0.008,0.010370075290877186,0.006586538461538463,0.0011978392158308428,0.004999999999999999,0.006694573002985904,1.008854356350555,0.0013669095574223686,0.0050670162964177035,1.0088552823716743,Mirovanje
1.0088846153846154,0.0013105173105692877,0.006000000000000005,1.0088854665497886,0.010096153846153845,0.0016728558651486177,0.008,0.010233805217550762,0.00666346153846154,0.0011735103234696918,0.004999999999999999,0.006766006662267349,1.008959203797707,0.0013112218218350319,0.006043189454256526,1.008960055815278,Mirovanje
1.0088942307692308,0.001239713593092935,0.006000000000000005,1.008894992439367,0.009798076923076925,0.0015895077109953288,0.008,0.009926169762493796,0.006682692307692308,0.001103006582351193,0.004999999999999999,0.006773108592072034,1.008965792695631,0.0012404779165091115,0.006006909540892114,1.0089665552511562,Mirovanje
1.0086346153846153,0.0013086817523730002,0.008000000000000007,1.0086354643774926,0.009442307692307693,0.001592210141939397,0.008,0.00957561004282796,0.006596153846153848,0.001060834493446177,0.004999999999999999,0.006680914262630182,1.0087021907485434,0.0013104587616181228,0.00796811627330829,1.0087030419915848,Mirovanje
1.0083653846153846,0.0014679767100678938,0.008999999999999897,1.008366453153889,0.009615384615384614,0.001761269714131586,0.009999999999999998,0.009775361492430462,0.006682692307692308,0.0010493993069015453,0.006,0.006764585381574793,1.00843545161858,0.001470058732321067,0.008968052874353871,1.0084365231157815,Mirovanje
1.0085288461538462,0.001493297401784893,0.006999999999999895,1.0085299516928283,0.009807692307692305,0.0015876744185038686,0.009,0.009935368058685017,0.006442307692307693,0.0012075636874184308,0.006,0.006554505203410739,1.0085990790706738,0.0014947361806693265,0.007028379160128884,1.0086001866639036,Mirovanje
1.0085865384615382,0.00149750161758663,0.007000000000000117,1.008587650170734,0.009673076923076923,0.0014639403340898657,0.008,0.009783227405183755,0.006355769230769231,0.0011922689199651197,0.004999999999999999,0.006466630319749823,1.0086547113194937,0.0015000853528301644,0.0070352370315101,1.008655826792805,Mirovanje
1.008403846153846,0.0016956915469758058,0.008000000000000007,1.0084052718563565,0.009701923076923077,0.0015056292301553612,0.008,0.009818056364129855,0.006740384615384616,0.0012480384016812166,0.006,0.006854953290532666,1.008474935666257,0.0016973673779211026,0.008046999572609348,1.0084763640874668,Mirovanje
1.0085865384615385,0.0015909030872859953,0.008000000000000007,1.008587793173436,0.01025,0.0014855069064904308,0.009000000000000001,0.010357086017274877,0.006461538461538463,0.0015499570522776833,0.008,0.006644836051690527,1.0086616031284863,0.0015905941206717119,0.00802759770644279,1.008662857259741,Mirovanje
1.0086153846153845,0.0014432048491764585,0.007000000000000117,1.0086164171393786,0.009923076923076923,0.0015974276659457835,0.008,0.010050832342111312,0.006336538461538462,0.0014115633512791965,0.006999999999999999,0.006491858806938947,1.0086863523663017,0.0014432375342900237,0.007016329195609572,1.0086873848644164,Mirovanje
1.0083942307692306,0.001496266309793314,0.008000000000000007,1.008395340856719,0.009634615384615382,0.0014679767100678996,0.005999999999999999,0.009745807777232694,0.006692307692307694,0.0012940464493277478,0.005999999999999999,0.006816270128269453,1.0084643610533475,0.0014960797085405528,0.007981486676118088,1.0084654707867942,Mirovanje
1.0083942307692306,0.001509064083557756,0.008999999999999897,1.0083953599273834,0.010048076923076922,0.0014831087911513885,0.005999999999999999,0.01015694154450352,0.0068269230769230785,0.0014573573798297996,0.007,0.006980742742056122,1.0084695384311035,0.0015120219585771308,0.008991778458445454,1.0084706719354044,Mirovanje
1.0086634615384615,0.0015480171990390468,0.008000000000000007,1.0086646494251694,0.009874999999999998,0.0015360257159305634,0.005999999999999999,0.009993748045653342,0.006528846153846155,0.0014002522490418451,0.008,0.006677315213582362,1.0087350631685241,0.001552054398288198,0.00802171857501488,1.008736257174521,Mirovanje
1.0086538461538461,0.0015797348290702202,0.008000000000000007,1.0086550832286907,0.009788461538461536,0.0014187825016478911,0.006999999999999999,0.009890749368825552,0.006384615384615386,0.001219297498780566,0.006999999999999999,0.006500000000000001,1.0087232794164434,0.0015809520832436178,0.007975665330229864,1.0087245183131783,Mirovanje
1.008403846153846,0.0014512543034404606,0.008000000000000007,1.0084048904467506,0.010153846153846152,0.0015049228881933731,0.008,0.010264764226000742,0.006423076923076924,0.001157685918714801,0.005999999999999999,0.00652657290207915,1.0084772105775965,0.0014492622310388807,0.007975665330229864,1.0084782519297997,Mirovanje
1.0082980769230767,0.0012394152443507415,0.006000000000000005,1.00829883867677,0.010076923076923077,0.0017358898609841167,0.009,0.0102253455837782,0.0067115384615384615,0.001276059717398392,0.007,0.0068317696772561744,1.008373069098379,0.0012378866142329097,0.005999453844308444,1.0083738289177053,Mirovanje
1.0082980769230767,0.0013436446394637824,0.006000000000000005,1.008298972184189,0.010009615384615384,0.0016082431426613203,0.009,0.010137990242343211,0.0068269230769230785,0.0013188158127384558,0.007,0.006953139855213172,1.0083730137197073,0.0013444365091330433,0.006009900703100257,1.0083739099697553,Mirovanje
1.0084807692307691,0.0013585963431676927,0.007000000000000117,1.0084816843613509,0.009865384615384613,0.0015383413414584671,0.008,0.009984603532054125,0.006663461538461539,0.0013700826541818347,0.008,0.006802855735192842,1.0085531367478529,0.0013598537496404483,0.006967817180624891,1.0085540535073734,Mirovanje
1.0085480769230768,0.0013147082719130807,0.007000000000000117,1.0085489338267515,0.009663461538461537,0.0016326628610192245,0.008,0.009800412079248347,0.006875000000000001,0.0012985754028638755,0.005999999999999999,0.006996565091308954,1.0086199591401874,0.0013152745429149831,0.006981746494592933,1.0086208167210693,Mirovanje
1.0084134615384615,0.0014115633512791922,0.006000000000000005,1.0084144494815002,0.009788461538461536,0.0014322727831819562,0.008,0.009892693496484395,0.006682692307692308,0.0011869840828830653,0.006,0.006787290158252238,1.0084848241482012,0.0014121183223632311,0.006038188678300527,1.0084858127982685,Mirovanje
1.0085288461538462,0.00150612040310164,0.007000000000000117,1.0085299707609472,0.009913461538461536,0.0013381285505329745,0.006999999999999999,0.010003364818515204,0.0065000000000000014,0.0012709778186044852,0.004999999999999999,0.006623094791363371,1.0086001962543654,0.0015095466340085018,0.007015379066647398,1.0086013259040385,Mirovanje
1.0087884615384615,0.0014720020179430436,0.007000000000000117,1.0087895354944345,0.00973076923076923,0.0016480219450483499,0.008,0.00986933868877982,0.006442307692307693,0.0013432661334692555,0.006,0.006580858022149719,1.0088581979187357,0.0014747724229560479,0.007033164108473544,1.008859275846507,Mirovanje
1.0086057692307693,0.001368732353105555,0.006000000000000005,1.0086066979521036,0.009548076923076921,0.0016920618265453748,0.009000000000000001,0.009696847227519168,0.00653846153846154,0.0013581879679238134,0.006,0.006678035178565163,1.008674491225465,0.0013663472821106597,0.006037698815642534,1.0086754166498983,Mirovanje
1.008471153846154,0.0015188351480988997,0.006000000000000005,1.0084722975868003,0.009730769230769229,0.0013952582420936196,0.008,0.00983029070702466,0.006865384615384616,0.001278954593435985,0.006,0.0069834970300867725,1.0085432441126239,0.0015177618186509928,0.006042145027266965,1.0085443861556882,Mirovanje
1.008826923076923,0.0016198427493261185,0.008000000000000007,1.0088282235422363,0.009644230769230768,0.001231933043500595,0.007,0.00972259462046249,0.0069615384615384635,0.0010912508430085466,0.006,0.007046548527743647,1.008898380133818,0.0016204539642432373,0.007977525945508823,1.0088996814885474,Mirovanje
1.008576923076923,0.0014524005837307143,0.008000000000000007,1.0085779688406689,0.009692307692307693,0.0013521842947113035,0.009000000000000001,0.00978617549246031,0.006971153846153848,0.0011219551167598765,0.006999999999999999,0.007060861790940907,1.008649115752944,0.0014510415476106247,0.008015333989859874,1.0086501594858195,Mirovanje
1.008153846153846,0.0013356734887834951,0.006000000000000005,1.0081547309507908,0.009528846153846153,0.0013654861825712111,0.008,0.009626186240586743,0.006634615384615386,0.0014481931202741806,0.008,0.006790830922308743,1.008222672330511,0.0013354337641282566,0.006026361891662946,1.0082235567495015,Mirovanje
