#Format version: 1.0
time[us],accX[g],accY[g],accZ[g],
415097204,0.027,-0.006,-1.019,
415135728,0.028,-0.006,-1.018,
415174251,0.028,-0.006,-1.019,
415212775,0.027,-0.006,-1.019,
415251299,0.028,-0.006,-1.019,
415289823,0.028,-0.006,-1.019,
415328346,0.027,-0.006,-1.019,
415366870,0.027,-0.006,-1.019,
415405394,0.027,-0.006,-1.019,
415443917,0.027,-0.005,-1.019,
415482441,0.027,-0.006,-1.018,
415520964,0.027,-0.006,-1.018,
415559489,0.027,-0.006,-1.018,
415598012,0.028,-0.006,-1.018,
415636536,0.027,-0.006,-1.019,
415675060,0.027,-0.006,-1.019,
415713583,0.027,-0.006,-1.019,
415752107,0.027,-0.006,-1.019,
415790631,0.027,-0.006,-1.019,
415829155,0.027,-0.006,-1.019,
415867678,0.028,-0.006,-1.019,
415906202,0.027,-0.006,-1.018,
415944726,0.027,-0.006,-1.019,
415983249,0.027,-0.006,-1.019,
416021773,0.027,-0.006,-1.018,
416060296,0.027,-0.006,-1.018,
416098820,0.028,-0.006,-1.019,
416137344,0.027,-0.006,-1.019,
416175868,0.027,-0.006,-1.019,
416214391,0.027,-0.006,-1.019,
416252915,0.027,-0.006,-1.019,
416291439,0.027,-0.006,-1.018,
416329962,0.027,-0.006,-1.018,
416368486,0.027,-0.006,-1.019,
416407010,0.027,-0.006,-1.019,
416445533,0.027,-0.006,-1.019,
416484057,0.027,-0.006,-1.018,
416522581,0.027,-0.006,-1.019,
416561105,0.027,-0.006,-1.019,
416599629,0.027,-0.006,-1.019,
416638152,0.027,-0.006,-1.018,
416676676,0.028,-0.006,-1.019,
416715200,0.027,-0.006,-1.019,
416753723,0.027,-0.006,-1.019,
416792247,0.027,-0.006,-1.019,
416830770,0.027,-0.006,-1.018,
416869294,0.027,-0.006,-1.019,
416907818,0.027,-0.006,-1.018,
416946342,0.028,-0.006,-1.019,
416984865,0.027,-0.007,-1.019,
417023389,0.027,-0.006,-1.018,
417061913,0.028,-0.006,-1.018,
417100437,0.027,-0.006,-1.019,
417138960,0.027,-0.006,-1.019,
417177483,0.027,-0.006,-1.019,
417216008,0.027,-0.006,-1.018,
417254531,0.027,-0.006,-1.018,
417293055,0.027,-0.006,-1.019,
417331579,0.028,-0.006,-1.019,
417370102,0.027,-0.006,-1.019,
417408626,0.028,-0.006,-1.019,
417447150,0.027,-0.006,-1.019,
417485674,0.027,-0.006,-1.019,
417524197,0.027,-0.006,-1.019,
417562721,0.028,-0.006,-1.018,
417601244,0.028,-0.006,-1.018,
417639768,0.027,-0.006,-1.019,
417678291,0.027,-0.006,-1.019,
417716816,0.027,-0.006,-1.019,
417755339,0.028,-0.007,-1.019,
417793863,0.027,-0.006,-1.019,
417832387,0.027,-0.006,-1.019,
417870911,0.028,-0.006,-1.019,
417909434,0.027,-0.006,-1.019,
417947958,0.027,-0.006,-1.018,
417986482,0.027,-0.006,-1.018,
418025005,0.027,-0.006,-1.019,
418063529,0.027,-0.006,-1.019,
418102053,0.028,-0.006,-1.019,
418140576,0.028,-0.006,-1.019,
418179100,0.027,-0.006,-1.018,
418217624,0.027,-0.006,-1.019,
418256148,0.027,-0.006,-1.019,
418294671,0.027,-0.006,-1.018,
418333195,0.027,-0.006,-1.019,
418371718,0.028,-0.006,-1.019,
418410242,0.027,-0.006,-1.018,
418448766,0.027,-0.006,-1.019,
418487290,0.027,-0.006,-1.019,
418525813,0.028,-0.006,-1.019,
418564337,0.028,-0.006,-1.019,
418602861,0.027,-0.006,-1.018,
418641384,0.027,-0.006,-1.019,
418679908,0.027,-0.006,-1.018,
418718432,0.027,-0.006,-1.019,
418756955,0.027,-0.006,-1.018,
418795479,0.027,-0.006,-1.019,
418834002,0.027,-0.006,-1.019,
418872527,0.027,-0.006,-1.019,
418911050,0.027,-0.006,-1.018,
418949574,0.027,-0.006,-1.019,
418988098,0.027,-0.005,-1.018,
419026621,0.027,-0.007,-1.018,
419065145,0.027,-0.006,-1.018,
419103669,0.027,-0.007,-1.018,
419142193,0.027,-0.006,-1.018,
419180716,0.028,-0.005,-1.019,
419219240,0.026,-0.007,-1.019,
419257763,0.027,-0.006,-1.018,
419296287,0.027,-0.006,-1.019,
419334811,0.027,-0.006,-1.019,
419373335,0.027,-0.006,-1.019,
419411858,0.027,-0.006,-1.018,
419450382,0.027,-0.007,-1.018,
419488906,0.027,-0.006,-1.019,
419527429,0.027,-0.006,-1.018,
419565953,0.027,-0.006,-1.018,
419604477,0.027,-0.006,-1.019,
419643000,0.027,-0.006,-1.018,
419681524,0.027,-0.007,-1.018,
419720048,0.027,-0.006,-1.018,
419758572,0.027,-0.006,-1.019,
419797095,0.027,-0.006,-1.019,
419835619,0.027,-0.006,-1.019,
419874143,0.027,-0.006,-1.019,
419912667,0.027,-0.006,-1.019,
419951190,0.027,-0.006,-1.018,
419989714,0.027,-0.006,-1.019,
420028237,0.027,-0.006,-1.019,
420066761,0.027,-0.006,-1.019,
420105285,0.027,-0.007,-1.018,
420143809,0.027,-0.006,-1.018,
420182332,0.027,-0.006,-1.018,
420220856,0.027,-0.007,-1.018,
420259380,0.027,-0.006,-1.019,
420297903,0.027,-0.006,-1.019,
420336427,0.027,-0.006,-1.019,
420374951,0.027,-0.006,-1.019,
420413475,0.027,-0.006,-1.018,
420451998,0.026,-0.006,-1.019,
420490522,0.027,-0.006,-1.019,
420529046,0.027,-0.006,-1.019,
420567569,0.027,-0.007,-1.019,
420606093,0.028,-0.006,-1.019,
420644617,0.027,-0.006,-1.019,
420683141,0.027,-0.006,-1.019,
420721664,0.026,-0.007,-1.019,
420760188,0.027,-0.006,-1.019,
420798711,0.027,-0.006,-1.018,
420837236,0.027,-0.006,-1.019,
420875759,0.027,-0.006,-1.019,
420914283,0.028,-0.006,-1.019,
420952807,0.027,-0.006,-1.018,
420991330,0.027,-0.006,-1.019,
421029853,0.027,-0.006,-1.019,
421068378,0.027,-0.006,-1.019,
421106901,0.027,-0.006,-1.018,
421145424,0.027,-0.006,-1.018,
421183949,0.027,-0.006,-1.019,
421222473,0.027,-0.007,-1.019,
421260996,0.027,-0.006,-1.019,
421299519,0.027,-0.006,-1.019,
421338044,0.027,-0.006,-1.019,
421376567,0.027,-0.006,-1.019,
421415091,0.027,-0.006,-1.018,
421453615,0.027,-0.006,-1.019,
421492138,0.028,-0.006,-1.019,
421530662,0.027,-0.006,-1.019,
421569186,0.027,-0.007,-1.019,
421607709,0.026,-0.006,-1.018,
421646233,0.027,-0.006,-1.019,
421684757,0.027,-0.006,-1.019,
421723280,0.027,-0.006,-1.019,
421761804,0.027,-0.006,-1.018,
421800328,0.027,-0.006,-1.018,
421838851,0.027,-0.006,-1.019,
421877376,0.026,-0.006,-1.019,
421915899,0.027,-0.006,-1.019,
421954422,0.027,-0.006,-1.019,
421992946,0.027,-0.006,-1.019,
422031470,0.027,-0.006,-1.018,
422069994,0.027,-0.006,-1.018,
422108517,0.027,-0.006,-1.019,
422147041,0.027,-0.006,-1.019,
422185565,0.027,-0.006,-1.019,
422224089,0.026,-0.006,-1.019,
422262612,0.027,-0.006,-1.019,
422301136,0.027,-0.006,-1.018,
422339660,0.027,-0.006,-1.019,
422378183,0.027,-0.006,-1.019,
422416707,0.027,-0.006,-1.018,
422455230,0.027,-0.006,-1.019,
422493754,0.027,-0.007,-1.018,
422532278,0.027,-0.007,-1.019,
422570802,0.027,-0.007,-1.019,
422609326,0.027,-0.006,-1.018,
422647849,0.027,-0.007,-1.019,
422686373,0.027,-0.006,-1.019,
422724897,0.027,-0.006,-1.019,
422763421,0.027,-0.006,-1.018,
422801944,0.027,-0.006,-1.018,
422840468,0.027,-0.006,-1.019,
422878992,0.027,-0.007,-1.019,
422917515,0.028,-0.006,-1.019,
422956039,0.027,-0.007,-1.019,
422994563,0.027,-0.006,-1.019,
423033087,0.027,-0.007,-1.019,
423071610,0.027,-0.006,-1.019,
423110133,0.027,-0.007,-1.019,
423148658,0.027,-0.007,-1.019,
423187181,0.027,-0.007,-1.018,
423225705,0.026,-0.006,-1.019,
423264228,0.027,-0.006,-1.019,
423302752,0.027,-0.006,-1.018,
423341276,0.027,-0.006,-1.019,
423379799,0.027,-0.006,-1.018,
423418323,0.026,-0.006,-1.019,
423456847,0.026,-0.006,-1.019,
423495371,0.027,-0.006,-1.019,
423533894,0.027,-0.007,-1.018,
423572418,0.027,-0.006,-1.019,
423610941,0.027,-0.006,-1.019,
423649466,0.027,-0.007,-1.019,
423687990,0.027,-0.006,-1.019,
423726512,0.027,-0.006,-1.018,
423765036,0.027,-0.006,-1.018,
423803560,0.027,-0.006,-1.019,
423842084,0.027,-0.006,-1.019,
423880608,0.027,-0.006,-1.018,
423919131,0.027,-0.006,-1.018,
423957655,0.027,-0.006,-1.019,
423996179,0.027,-0.006,-1.019,
424034703,0.027,-0.007,-1.019,
424073227,0.027,-0.006,-1.018,
424111750,0.027,-0.006,-1.018,
424150274,0.026,-0.007,-1.019,
424188797,0.027,-0.006,-1.019,
424227321,0.027,-0.006,-1.019,
424265845,0.027,-0.006,-1.018,
424304369,0.027,-0.006,-1.019,
424342892,0.026,-0.006,-1.019,
424381416,0.027,-0.006,-1.019,
424419939,0.027,-0.006,-1.018,
424458463,0.027,-0.007,-1.019,
424496987,0.027,-0.006,-1.018,
424535511,0.027,-0.006,-1.019,
424574035,0.027,-0.006,-1.019,
424612558,0.027,-0.006,-1.019,
424651082,0.027,-0.006,-1.019,
424689605,0.027,-0.006,-1.018,
424728129,0.027,-0.006,-1.018,
424766653,0.027,-0.007,-1.018,
424805177,0.027,-0.007,-1.019,
424843700,0.027,-0.006,-1.019,
424882224,0.027,-0.006,-1.019,
424920748,0.027,-0.006,-1.019,
424959272,0.027,-0.006,-1.018,
424997795,0.027,-0.007,-1.018,
425036319,0.027,-0.006,-1.019,
425074843,0.027,-0.006,-1.018,
425113366,0.027,-0.006,-1.019,
425151890,0.027,-0.006,-1.019,
425190413,0.027,-0.006,-1.018,
425228937,0.027,-0.006,-1.018,
425267461,0.027,-0.006,-1.019,
425305985,0.027,-0.007,-1.019,
425344509,0.027,-0.007,-1.019,
425383032,0.027,-0.006,-1.019,
425421556,0.027,-0.006,-1.019,
425460080,0.027,-0.006,-1.019,
425498603,0.027,-0.006,-1.02,
425537127,0.027,-0.006,-1.018,
425575651,0.027,-0.006,-1.018,
425614174,0.027,-0.006,-1.019,
425652698,0.027,-0.007,-1.018,
425691222,0.028,-0.007,-1.019,
425729746,0.027,-0.006,-1.019,
425768269,0.027,-0.007,-1.019,
425806793,0.027,-0.007,-1.018,
425845317,0.027,-0.006,-1.019,
425883840,0.027,-0.006,-1.018,
425922364,0.026,-0.006,-1.019,
425960888,0.027,-0.006,-1.018,
425999412,0.027,-0.006,-1.019,
426037935,0.027,-0.006,-1.018,
426076459,0.027,-0.006,-1.018,
426114982,0.027,-0.006,-1.019,
426153506,0.027,-0.006,-1.018,
426192030,0.027,-0.007,-1.018,
426230554,0.027,-0.006,-1.019,
426269078,0.027,-0.007,-1.019,
426307601,0.027,-0.006,-1.019,
426346124,0.027,-0.006,-1.018,
426384648,0.027,-0.006,-1.018,
426423172,0.027,-0.006,-1.019,
426461696,0.027,-0.006,-1.019,
426500220,0.027,-0.006,-1.019,
426538743,0.027,-0.006,-1.019,
426577267,0.027,-0.006,-1.019,
426615791,0.026,-0.007,-1.019,
426654314,0.027,-0.006,-1.019,
426692838,0.027,-0.006,-1.019,
426731362,0.027,-0.006,-1.019,
426769886,0.027,-0.007,-1.018,
426808409,0.026,-0.006,-1.02,
426846932,0.027,-0.007,-1.018,
426885456,0.027,-0.006,-1.019,
426923980,0.027,-0.006,-1.018,
426962504,0.027,-0.006,-1.019,
427001028,0.027,-0.007,-1.018,
427039551,0.027,-0.006,-1.019,
427078075,0.027,-0.006,-1.018,
427116599,0.027,-0.006,-1.019,
427155122,0.027,-0.006,-1.019,
427193646,0.027,-0.006,-1.019,
427232170,0.027,-0.006,-1.019,
427270693,0.027,-0.006,-1.019,
427309217,0.027,-0.006,-1.019,
427347741,0.027,-0.006,-1.018,
427386265,0.027,-0.006,-1.019,
427424788,0.027,-0.006,-1.018,
427463312,0.027,-0.006,-1.019,
427501836,0.028,-0.006,-1.018,
427540360,0.027,-0.006,-1.019,
427578883,0.027,-0.006,-1.019,
427617407,0.027,-0.006,-1.019,
427655931,0.027,-0.006,-1.019,
427694454,0.027,-0.007,-1.019,
427732978,0.027,-0.007,-1.018,
427771501,0.027,-0.006,-1.019,
427810025,0.027,-0.006,-1.019,
427848549,0.027,-0.006,-1.019,
427887073,0.027,-0.006,-1.019,
427925596,0.027,-0.007,-1.019,
427964120,0.027,-0.006,-1.019,
428002644,0.027,-0.007,-1.018,
428041168,0.027,-0.006,-1.019,
428079691,0.026,-0.006,-1.019,
428118215,0.027,-0.006,-1.018,
428156738,0.027,-0.006,-1.019,
428195262,0.027,-0.006,-1.019,
428233786,0.027,-0.007,-1.018,
428272310,0.027,-0.006,-1.019,
428310833,0.027,-0.006,-1.018,
428349358,0.027,-0.007,-1.019,
428387881,0.027,-0.007,-1.019,
428426405,0.027,-0.006,-1.019,
428464928,0.027,-0.006,-1.019,
428503452,0.027,-0.006,-1.018,
428541976,0.027,-0.007,-1.019,
428580499,0.027,-0.006,-1.018,
428619023,0.027,-0.006,-1.018,
428657547,0.027,-0.007,-1.018,
428696070,0.027,-0.006,-1.019,
428734594,0.027,-0.007,-1.019,
428773118,0.027,-0.006,-1.019,
428811642,0.027,-0.006,-1.019,
428850166,0.027,-0.006,-1.019,
428888689,0.027,-0.007,-1.019,
428927212,0.027,-0.006,-1.018,
428965737,0.027,-0.007,-1.019,
429004260,0.027,-0.007,-1.019,
429042784,0.027,-0.007,-1.019,
429081307,0.027,-0.007,-1.018,
429119831,0.027,-0.006,-1.019,
429158355,0.027,-0.006,-1.018,
429196879,0.027,-0.007,-1.019,
429235402,0.027,-0.006,-1.019,
429273926,0.027,-0.007,-1.019,
429312450,0.027,-0.006,-1.019,
429350974,0.027,-0.007,-1.019,
429389497,0.027,-0.006,-1.019,
429428021,0.027,-0.007,-1.019,
429466545,0.027,-0.006,-1.019,
429505068,0.027,-0.006,-1.019,
429543592,0.028,-0.007,-1.018,
429582116,0.027,-0.007,-1.019,
429620640,0.027,-0.006,-1.019,
429659163,0.027,-0.006,-1.018,
429697687,0.027,-0.006,-1.02,
429736211,0.027,-0.007,-1.018,
429774734,0.027,-0.006,-1.019,
429813258,0.027,-0.007,-1.018,
429851781,0.027,-0.007,-1.019,
429890305,0.026,-0.007,-1.018,
429928829,0.027,-0.006,-1.019,
429967353,0.027,-0.007,-1.018,
430005877,0.027,-0.006,-1.019,
430044401,0.027,-0.006,-1.019,
430082924,0.027,-0.005,-1.019,
430121448,0.027,-0.006,-1.019,
430159971,0.027,-0.006,-1.018,
430198495,0.027,-0.006,-1.018,
430237019,0.027,-0.006,-1.019,
430275542,0.027,-0.006,-1.019,
430314066,0.027,-0.007,-1.019,
430352590,0.027,-0.006,-1.019,
430391114,0.027,-0.006,-1.019,
430429637,0.027,-0.007,-1.018,
430468161,0.027,-0.006,-1.019,
430506685,0.027,-0.007,-1.019,
430545208,0.027,-0.006,-1.019,
430583732,0.027,-0.006,-1.019,
430622256,0.027,-0.006,-1.019,
430660780,0.027,-0.006,-1.018,
430699303,0.027,-0.006,-1.019,
430737827,0.027,-0.006,-1.019,
430776351,0.027,-0.006,-1.019,
430814875,0.027,-0.006,-1.019,
430853398,0.026,-0.006,-1.019,
430891922,0.027,-0.006,-1.018,
430930445,0.027,-0.006,-1.019,
430968969,0.027,-0.006,-1.019,
431007493,0.027,-0.006,-1.019,
431046017,0.027,-0.006,-1.019,
431084541,0.027,-0.006,-1.019,
431123064,0.027,-0.006,-1.019,
431161588,0.027,-0.006,-1.019,
431200112,0.027,-0.006,-1.019,
431238635,0.027,-0.006,-1.019,
431277159,0.027,-0.007,-1.019,
431315683,0.027,-0.007,-1.018,
431354206,0.027,-0.006,-1.018,
431392730,0.027,-0.006,-1.019,
431431254,0.027,-0.007,-1.019,
431469777,0.027,-0.006,-1.019,
431508301,0.027,-0.006,-1.019,
431546825,0.027,-0.006,-1.019,
431585348,0.027,-0.006,-1.019,
431623872,0.027,-0.006,-1.019,
431662396,0.027,-0.006,-1.018,
431700920,0.027,-0.006,-1.019,
431739443,0.027,-0.006,-1.019,
431777967,0.027,-0.006,-1.018,
431816491,0.027,-0.007,-1.019,
431855014,0.027,-0.006,-1.019,
431893538,0.027,-0.007,-1.018,
431932062,0.027,-0.007,-1.019,
431970585,0.027,-0.006,-1.019,
432009110,0.027,-0.006,-1.019,
432047633,0.027,-0.006,-1.019,
432086157,0.027,-0.006,-1.018,
432124680,0.027,-0.006,-1.019,
432163204,0.027,-0.007,-1.018,
432201728,0.027,-0.006,-1.019,
432240251,0.027,-0.006,-1.018,
432278775,0.027,-0.006,-1.019,
432317299,0.027,-0.007,-1.019,
432355822,0.027,-0.007,-1.019,
432394347,0.027,-0.007,-1.019,
432432870,0.027,-0.007,-1.019,
432471393,0.027,-0.006,-1.018,
432509918,0.027,-0.006,-1.018,
432548441,0.028,-0.006,-1.019,
432586965,0.027,-0.006,-1.018,
432625489,0.027,-0.006,-1.019,
432664012,0.027,-0.006,-1.019,
432702536,0.027,-0.006,-1.018,
432741060,0.027,-0.007,-1.019,
432779584,0.027,-0.006,-1.018,
432818107,0.027,-0.006,-1.018,
432856631,0.027,-0.006,-1.018,
432895155,0.027,-0.007,-1.018,
432933678,0.027,-0.006,-1.019,
432972202,0.027,-0.006,-1.018,
433010726,0.027,-0.007,-1.019,
433049249,0.027,-0.006,-1.019,
433087773,0.027,-0.007,-1.018,
433126297,0.027,-0.006,-1.019,
433164820,0.027,-0.006,-1.018,
433203344,0.027,-0.006,-1.019,
433241868,0.027,-0.006,-1.019,
433280391,0.028,-0.007,-1.019,
433318915,0.027,-0.006,-1.019,
433357439,0.027,-0.006,-1.018,
433395963,0.027,-0.006,-1.018,
433434487,0.027,-0.006,-1.019,
433473010,0.027,-0.006,-1.019,
433511534,0.027,-0.007,-1.019,
433550057,0.027,-0.007,-1.019,
433588581,0.027,-0.007,-1.018,
433627105,0.027,-0.006,-1.019,
433665629,0.027,-0.007,-1.018,
433704153,0.026,-0.006,-1.019,
433742676,0.027,-0.006,-1.019,
433781200,0.027,-0.006,-1.019,
433819724,0.027,-0.006,-1.019,
433858247,0.027,-0.006,-1.019,
433896771,0.027,-0.007,-1.019,
433935295,0.027,-0.006,-1.019,
433973818,0.027,-0.006,-1.019,
434012342,0.027,-0.006,-1.019,
434050866,0.026,-0.006,-1.019,
434089389,0.027,-0.007,-1.019,
434127913,0.027,-0.006,-1.018,
434166437,0.027,-0.006,-1.019,
434204961,0.026,-0.006,-1.018,
434243485,0.026,-0.007,-1.019,
434282008,0.028,-0.006,-1.019,
434320532,0.027,-0.006,-1.019,
434359055,0.027,-0.006,-1.018,
434397579,0.027,-0.006,-1.019,
434436103,0.027,-0.006,-1.019,
434474627,0.027,-0.006,-1.018,
434513150,0.027,-0.006,-1.019,
434551674,0.027,-0.007,-1.019,
434590198,0.027,-0.007,-1.019,
434628722,0.027,-0.006,-1.019,
434667245,0.027,-0.006,-1.019,
434705769,0.027,-0.006,-1.019,
434744293,0.027,-0.006,-1.019,
434782816,0.027,-0.007,-1.018,
434821340,0.027,-0.007,-1.019,
434859864,0.027,-0.007,-1.018,
434898388,0.027,-0.006,-1.018,
434936911,0.027,-0.007,-1.019,
434975435,0.027,-0.006,-1.019,
435013959,0.027,-0.006,-1.019,
435052482,0.027,-0.006,-1.019,
435091006,0.027,-0.007,-1.019,
435129530,0.027,-0.006,-1.019,
435168053,0.027,-0.006,-1.018,
435206578,0.027,-0.006,-1.019,
435245101,0.027,-0.006,-1.018,
435283625,0.027,-0.006,-1.019,
435322148,0.027,-0.006,-1.019,
435360672,0.027,-0.006,-1.019,
435399196,0.027,-0.006,-1.019,
435437720,0.026,-0.006,-1.019,
435476243,0.027,-0.006,-1.019,
435514767,0.027,-0.006,-1.019,
435553291,0.027,-0.006,-1.019,
435591815,0.026,-0.006,-1.019,
435630338,0.027,-0.006,-1.018,
435668862,0.027,-0.006,-1.019,
435707386,0.027,-0.006,-1.019,
435745909,0.027,-0.006,-1.019,
435784433,0.027,-0.006,-1.019,
435822957,0.027,-0.006,-1.019,
435861480,0.027,-0.006,-1.019,
435900004,0.028,-0.006,-1.018,
435938528,0.027,-0.006,-1.019,
435977052,0.027,-0.006,-1.019,
436015575,0.027,-0.006,-1.019,
436054099,0.027,-0.006,-1.019,
436092623,0.027,-0.006,-1.019,
436131147,0.027,-0.006,-1.019,
436169670,0.027,-0.006,-1.019,
436208194,0.027,-0.006,-1.019,
436246718,0.027,-0.006,-1.019,
436285241,0.027,-0.006,-1.019,
436323765,0.027,-0.006,-1.019,
436362289,0.027,-0.007,-1.019,
436400812,0.027,-0.006,-1.018,
436439336,0.027,-0.007,-1.018,
436477860,0.027,-0.006,-1.018,
436516384,0.027,-0.006,-1.019,
436554907,0.027,-0.007,-1.019,
436593431,0.027,-0.006,-1.019,
436631955,0.026,-0.006,-1.018,
436670479,0.027,-0.006,-1.019,
436709002,0.027,-0.006,-1.019,
436747526,0.027,-0.006,-1.019,
436786050,0.027,-0.006,-1.018,
436824573,0.027,-0.006,-1.019,
436863097,0.027,-0.006,-1.019,
436901620,0.027,-0.006,-1.019,
436940145,0.027,-0.006,-1.019,
436978668,0.027,-0.006,-1.019,
437017192,0.027,-0.006,-1.019,
437055716,0.027,-0.006,-1.019,
437094240,0.027,-0.006,-1.019,
437132763,0.027,-0.006,-1.019,
437171287,0.027,-0.007,-1.019,
437209810,0.027,-0.006,-1.018,
437248334,0.028,-0.006,-1.019,
437286858,0.027,-0.006,-1.019,
437325382,0.027,-0.006,-1.018,
437363905,0.027,-0.006,-1.018,
437402429,0.027,-0.006,-1.019,
437440953,0.027,-0.006,-1.019,
437479477,0.027,-0.006,-1.018,
437518000,0.027,-0.007,-1.019,
437556524,0.027,-0.006,-1.019,
437595047,0.027,-0.006,-1.019,
437633572,0.027,-0.006,-1.019,
437672095,0.027,-0.006,-1.019,
437710619,0.027,-0.006,-1.018,
437749142,0.027,-0.006,-1.019,
437787666,0.027,-0.007,-1.019,
437826190,0.027,-0.006,-1.019,
437864714,0.027,-0.006,-1.019,
437903237,0.027,-0.006,-1.019,
437941761,0.027,-0.006,-1.018,
437980285,0.027,-0.006,-1.019,
438018809,0.027,-0.007,-1.019,
438057332,0.027,-0.006,-1.018,
438095856,0.027,-0.006,-1.019,
438134380,0.027,-0.006,-1.018,
438172904,0.027,-0.006,-1.019,
438211427,0.027,-0.006,-1.019,
438249951,0.027,-0.006,-1.019,
438288475,0.027,-0.007,-1.019,
438326998,0.027,-0.006,-1.018,
438365522,0.027,-0.006,-1.019,
438404045,0.027,-0.006,-1.018,
438442569,0.027,-0.006,-1.019,
438481093,0.027,-0.007,-1.019,
438519617,0.027,-0.006,-1.019,
438558140,0.027,-0.006,-1.019,
438596665,0.027,-0.006,-1.019,
438635188,0.027,-0.006,-1.018,
438673711,0.027,-0.006,-1.018,
438712235,0.027,-0.006,-1.018,
438750759,0.027,-0.006,-1.019,
438789283,0.026,-0.006,-1.018,
438827807,0.027,-0.006,-1.018,
438866330,0.027,-0.006,-1.019,
438904854,0.027,-0.006,-1.019,
438943378,0.028,-0.006,-1.019,
438981902,0.027,-0.006,-1.018,
439020425,0.027,-0.006,-1.019,
439058948,0.027,-0.006,-1.019,
439097472,0.027,-0.006,-1.019,
439135996,0.027,-0.007,-1.019,
439174520,0.027,-0.007,-1.019,
439213043,0.027,-0.006,-1.019,
439251568,0.027,-0.006,-1.019,
439290091,0.027,-0.006,-1.018,
439328615,0.027,-0.006,-1.019,
439367138,0.027,-0.006,-1.019,
439405662,0.027,-0.006,-1.019,
439444186,0.027,-0.006,-1.019,
439482710,0.027,-0.006,-1.019,
439521233,0.027,-0.006,-1.019,
439559757,0.027,-0.006,-1.019,
439598281,0.027,-0.006,-1.019,
439636804,0.027,-0.007,-1.019,
439675328,0.027,-0.007,-1.018,
439713852,0.027,-0.005,-1.019,
439752376,0.027,-0.006,-1.018,
439790899,0.027,-0.006,-1.019,
439829423,0.027,-0.006,-1.019,
439867947,0.027,-0.006,-1.019,
439906471,0.027,-0.006,-1.019,
439944994,0.027,-0.007,-1.019,
439983518,0.027,-0.006,-1.019,
440022042,0.027,-0.006,-1.019,
440060565,0.028,-0.006,-1.019,
440099089,0.027,-0.006,-1.019,
440137613,0.027,-0.006,-1.019,
440176137,0.027,-0.006,-1.019,
440214660,0.027,-0.006,-1.019,
440253184,0.027,-0.006,-1.019,
440291707,0.027,-0.006,-1.018,
440330232,0.027,-0.006,-1.019,
440368755,0.027,-0.006,-1.019,
440407279,0.027,-0.007,-1.019,
440445803,0.027,-0.006,-1.019,
440484326,0.027,-0.006,-1.019,
440522850,0.027,-0.006,-1.018,
440561373,0.027,-0.006,-1.019,
440599897,0.027,-0.006,-1.019,
440638421,0.027,-0.006,-1.019,
440676945,0.028,-0.006,-1.019,
440715469,0.026,-0.006,-1.019,
440753992,0.027,-0.006,-1.019,
440792516,0.027,-0.006,-1.019,
440831040,0.027,-0.006,-1.018,
440869563,0.027,-0.007,-1.019,
440908087,0.028,-0.006,-1.019,
440946611,0.027,-0.007,-1.019,
440985135,0.027,-0.006,-1.019,
441023658,0.026,-0.006,-1.019,
441062182,0.027,-0.006,-1.019,
441100706,0.027,-0.006,-1.019,
441139229,0.026,-0.006,-1.019,
441177753,0.027,-0.006,-1.018,
441216277,0.027,-0.006,-1.019,
441254801,0.028,-0.006,-1.018,
441293325,0.028,-0.006,-1.019,
441331848,0.028,-0.006,-1.019,
441370372,0.027,-0.006,-1.019,
441408895,0.027,-0.006,-1.019,
441447419,0.027,-0.006,-1.019,
441485943,0.027,-0.006,-1.019,
441524467,0.028,-0.006,-1.019,
441562990,0.027,-0.006,-1.018,
441601514,0.027,-0.006,-1.019,
441640038,0.027,-0.006,-1.019,
441678561,0.027,-0.006,-1.019,
441717085,0.027,-0.006,-1.019,
441755609,0.027,-0.006,-1.018,
441794133,0.027,-0.006,-1.019,
441832656,0.027,-0.006,-1.018,
441871180,0.027,-0.006,-1.019,
441909704,0.027,-0.006,-1.019,
441948228,0.027,-0.006,-1.019,
441986751,0.027,-0.006,-1.018,
442025275,0.027,-0.006,-1.018,
442063798,0.027,-0.006,-1.019,
442102323,0.027,-0.007,-1.019,
442140846,0.027,-0.006,-1.019,
442179369,0.027,-0.006,-1.019,
442217893,0.027,-0.006,-1.019,
442256417,0.027,-0.006,-1.019,
442294941,0.027,-0.006,-1.019,
442333464,0.027,-0.006,-1.018,
442371988,0.027,-0.006,-1.019,
442410512,0.027,-0.006,-1.019,
442449036,0.027,-0.006,-1.019,
442487560,0.027,-0.006,-1.019,
442526083,0.028,-0.006,-1.018,
442564607,0.027,-0.006,-1.019,
442603131,0.027,-0.006,-1.019,
442641654,0.027,-0.006,-1.018,
442680178,0.027,-0.006,-1.019,
442718702,0.027,-0.007,-1.018,
442757225,0.027,-0.006,-1.019,
442795749,0.027,-0.007,-1.019,
442834273,0.027,-0.006,-1.019,
442872796,0.027,-0.006,-1.019,
442911320,0.028,-0.006,-1.019,
442949844,0.027,-0.006,-1.019,
442988368,0.027,-0.006,-1.019,
443026892,0.027,-0.006,-1.019,
443065415,0.027,-0.007,-1.018,
443103939,0.027,-0.006,-1.019,
443142463,0.027,-0.006,-1.019,
443180986,0.027,-0.006,-1.019,
443219510,0.027,-0.006,-1.019,
443258034,0.027,-0.006,-1.018,
443296557,0.028,-0.006,-1.019,
443335081,0.027,-0.006,-1.019,
443373605,0.027,-0.006,-1.019,
443412129,0.026,-0.006,-1.019,
443450652,0.027,-0.006,-1.019,
443489176,0.027,-0.006,-1.018,
443527700,0.027,-0.007,-1.019,
443566224,0.027,-0.006,-1.019,
443604748,0.028,-0.006,-1.019,
443643271,0.027,-0.006,-1.019,
443681795,0.027,-0.006,-1.019,
443720318,0.027,-0.006,-1.018,
443758842,0.027,-0.006,-1.018,
443797365,0.027,-0.006,-1.018,
443835890,0.027,-0.005,-1.019,
443874413,0.026,-0.006,-1.018,
443912937,0.027,-0.007,-1.019,
443951461,0.027,-0.006,-1.018,
443989985,0.027,-0.006,-1.019,
444028508,0.027,-0.006,-1.018,
444067032,0.027,-0.006,-1.018,
444105556,0.027,-0.005,-1.018,
444144079,0.027,-0.006,-1.019,
444182603,0.027,-0.006,-1.019,
444221127,0.027,-0.006,-1.019,
444259651,0.027,-0.006,-1.019,
444298174,0.027,-0.007,-1.019,
444336698,0.027,-0.006,-1.018,
444375221,0.027,-0.006,-1.019,
444413745,0.027,-0.006,-1.019,
444452269,0.027,-0.007,-1.019,
444490793,0.027,-0.006,-1.019,
444529317,0.027,-0.006,-1.019,
444567840,0.027,-0.006,-1.019,
444606364,0.027,-0.006,-1.019,
444644888,0.027,-0.006,-1.019,
444683411,0.027,-0.007,-1.019,
444721935,0.027,-0.006,-1.018,
444760459,0.026,-0.006,-1.018,
444798983,0.027,-0.006,-1.019,
444837507,0.028,-0.006,-1.018,
444876030,0.027,-0.006,-1.019,
444914554,0.027,-0.006,-1.019,
444953077,0.027,-0.006,-1.019,
444991601,0.027,-0.007,-1.019,
445030125,0.027,-0.007,-1.019,
445068649,0.027,-0.006,-1.019,
445107172,0.027,-0.006,-1.019,
445145696,0.027,-0.006,-1.018,
445184220,0.027,-0.006,-1.019,
445222743,0.028,-0.006,-1.019,
445261267,0.027,-0.006,-1.019,
445299791,0.027,-0.006,-1.019,
445338314,0.027,-0.006,-1.019,
445376838,0.027,-0.006,-1.019,
445415362,0.027,-0.006,-1.018,
445453885,0.027,-0.007,-1.019,
445492410,0.027,-0.006,-1.019,
445530933,0.027,-0.006,-1.018,
445569457,0.027,-0.006,-1.019,
445607980,0.027,-0.007,-1.019,
445646504,0.027,-0.006,-1.019,
445685028,0.027,-0.006,-1.019,
445723552,0.027,-0.007,-1.018,
445762076,0.027,-0.006,-1.018,
445800599,0.027,-0.006,-1.019,
445839123,0.027,-0.006,-1.018,
445877646,0.027,-0.006,-1.018,
445916170,0.027,-0.007,-1.019,
445954694,0.027,-0.006,-1.019,
445993218,0.027,-0.006,-1.019,
446031741,0.027,-0.006,-1.018,
446070265,0.027,-0.006,-1.018,
446108789,0.026,-0.006,-1.018,
446147313,0.027,-0.006,-1.019,
446185836,0.027,-0.007,-1.019,
446224360,0.027,-0.006,-1.018,
446262884,0.027,-0.006,-1.019,
446301407,0.027,-0.006,-1.019,
446339931,0.027,-0.006,-1.019,
446378455,0.027,-0.006,-1.019,
446416979,0.027,-0.006,-1.019,
446455502,0.027,-0.006,-1.019,
446494026,0.027,-0.007,-1.019,
446532550,0.027,-0.007,-1.019,
446571074,0.027,-0.006,-1.018,
446609598,0.027,-0.006,-1.018,
446648121,0.027,-0.006,-1.018,
446686645,0.027,-0.006,-1.019,
446725169,0.027,-0.006,-1.019,
446763692,0.027,-0.007,-1.018,
446802216,0.027,-0.006,-1.019,
446840739,0.027,-0.006,-1.019,
446879263,0.027,-0.006,-1.019,
446917787,0.028,-0.006,-1.019,
446956311,0.026,-0.006,-1.019,
446994835,0.027,-0.006,-1.019,
447033358,0.027,-0.006,-1.019,
447071882,0.027,-0.006,-1.019,
447110406,0.027,-0.006,-1.018,
447148929,0.026,-0.006,-1.019,
447187453,0.027,-0.006,-1.018,
447225977,0.027,-0.006,-1.019,
447264500,0.027,-0.007,-1.019,
447303024,0.027,-0.006,-1.019,
447341548,0.027,-0.007,-1.018,
447380072,0.027,-0.006,-1.019,
447418596,0.027,-0.006,-1.019,
447457119,0.027,-0.006,-1.019,
447495643,0.027,-0.006,-1.019,
447534166,0.027,-0.006,-1.018,
447572690,0.027,-0.007,-1.018,
447611214,0.027,-0.007,-1.019,
447649737,0.026,-0.007,-1.019,
447688262,0.027,-0.007,-1.018,
447726785,0.028,-0.006,-1.019,
447765309,0.027,-0.006,-1.019,
447803832,0.027,-0.007,-1.019,
447842357,0.027,-0.006,-1.018,
447880880,0.027,-0.006,-1.019,
447919404,0.027,-0.006,-1.018,
447957927,0.027,-0.006,-1.019,
447996451,0.026,-0.006,-1.019,
448034975,0.027,-0.006,-1.019,
448073499,0.027,-0.006,-1.018,
448112023,0.027,-0.006,-1.018,
448150546,0.027,-0.006,-1.018,
448189070,0.027,-0.006,-1.019,
448227594,0.027,-0.006,-1.018,
448266117,0.027,-0.006,-1.019,
448304641,0.027,-0.006,-1.019,
448343165,0.027,-0.006,-1.019,
448381688,0.027,-0.006,-1.019,
448420212,0.027,-0.006,-1.019,
448458736,0.027,-0.006,-1.018,
448497259,0.027,-0.007,-1.018,
448535783,0.027,-0.006,-1.019,
448574307,0.027,-0.006,-1.019,
448612830,0.027,-0.007,-1.018,
448651354,0.027,-0.006,-1.019,
448689878,0.027,-0.006,-1.019,
448728402,0.027,-0.007,-1.019,
448766926,0.027,-0.006,-1.019,
448805449,0.027,-0.006,-1.019,
448843973,0.028,-0.007,-1.019,
448882496,0.027,-0.006,-1.019,
448921021,0.027,-0.006,-1.019,
448959544,0.027,-0.006,-1.019,
448998068,0.027,-0.006,-1.019,
449036592,0.027,-0.006,-1.018,
449075116,0.027,-0.006,-1.019,
449113639,0.027,-0.006,-1.019,
449152163,0.028,-0.006,-1.019,
449190686,0.028,-0.005,-1.019,
449229211,0.027,-0.006,-1.019,
449267734,0.027,-0.007,-1.018,
449306258,0.027,-0.006,-1.019,
449344783,0.027,-0.006,-1.019,
449383305,0.027,-0.007,-1.019,
449421829,0.027,-0.007,-1.019,
449460352,0.027,-0.006,-1.019,
449498876,0.026,-0.006,-1.018,
449537400,0.027,-0.006,-1.019,
449575924,0.027,-0.006,-1.018,
449614447,0.027,-0.006,-1.018,
449652971,0.027,-0.006,-1.019,
449691495,0.027,-0.006,-1.019,
449730019,0.026,-0.006,-1.018,
449768542,0.027,-0.006,-1.019,
449807066,0.027,-0.006,-1.019,
449845590,0.027,-0.006,-1.018,
449884114,0.027,-0.006,-1.019,
449922637,0.027,-0.006,-1.019,
449961161,0.027,-0.007,-1.018,
449999684,0.027,-0.006,-1.019,
450038208,0.027,-0.006,-1.019,
450076732,0.027,-0.007,-1.018,
450115256,0.027,-0.006,-1.019,
450153780,0.027,-0.006,-1.019,
450192303,0.027,-0.007,-1.019,
450230827,0.027,-0.006,-1.018,
450269351,0.027,-0.006,-1.018,
450307874,0.027,-0.006,-1.019,
450346398,0.028,-0.007,-1.019,
450384922,0.027,-0.006,-1.019,
450423445,0.027,-0.007,-1.019,
450461969,0.027,-0.006,-1.019,
450500493,0.027,-0.006,-1.019,
450539016,0.027,-0.006,-1.018,
450577541,0.027,-0.006,-1.019,
450616064,0.027,-0.006,-1.018,
450654588,0.027,-0.007,-1.019,
450693111,0.027,-0.006,-1.019,
450731636,0.027,-0.007,-1.019,
450770159,0.027,-0.006,-1.019,
450808683,0.027,-0.007,-1.019,
450847207,0.027,-0.006,-1.018,
450885730,0.027,-0.006,-1.019,
450924254,0.027,-0.006,-1.019,
450962777,0.026,-0.006,-1.019,
451001302,0.027,-0.006,-1.019,
451039825,0.027,-0.006,-1.019,
451078349,0.027,-0.006,-1.019,
451116872,0.027,-0.006,-1.019,
451155396,0.027,-0.007,-1.018,
451193920,0.027,-0.006,-1.019,
451232444,0.027,-0.007,-1.019,
451270968,0.027,-0.007,-1.018,
451309491,0.027,-0.006,-1.018,
451348015,0.027,-0.006,-1.019,
451386538,0.027,-0.006,-1.018,
451425062,0.027,-0.006,-1.019,
451463586,0.027,-0.006,-1.019,
451502110,0.027,-0.006,-1.019,
451540633,0.027,-0.006,-1.019,
451579157,0.027,-0.007,-1.018,
451617681,0.027,-0.006,-1.018,
451656204,0.027,-0.006,-1.019,
451694729,0.027,-0.006,-1.019,
451733252,0.027,-0.007,-1.018,
451771776,0.027,-0.006,-1.019,
451810299,0.027,-0.006,-1.018,
451848823,0.027,-0.006,-1.019,
451887347,0.027,-0.007,-1.019,
451925871,0.027,-0.006,-1.019,
451964395,0.027,-0.006,-1.019,
452002918,0.027,-0.006,-1.019,
452041442,0.027,-0.007,-1.019,
452079965,0.027,-0.006,-1.019,
452118489,0.027,-0.006,-1.019,
452157013,0.027,-0.006,-1.019,
452195537,0.027,-0.006,-1.018,
452234061,0.027,-0.006,-1.019,
452272584,0.027,-0.006,-1.019,
452311108,0.026,-0.006,-1.019,
452349631,0.027,-0.006,-1.018,
452388155,0.027,-0.007,-1.019,
452426679,0.027,-0.006,-1.019,
452465202,0.027,-0.005,-1.018,
452503727,0.027,-0.006,-1.019,
452542250,0.028,-0.006,-1.018,
452580774,0.027,-0.006,-1.018,
452619297,0.027,-0.006,-1.019,
452657821,0.027,-0.006,-1.019,
452696345,0.027,-0.006,-1.019,
452734869,0.027,-0.006,-1.018,
452773393,0.027,-0.006,-1.019,
452811916,0.027,-0.006,-1.019,
452850440,0.027,-0.006,-1.019,
452888964,0.027,-0.006,-1.018,
452927488,0.027,-0.006,-1.018,
452966011,0.027,-0.006,-1.019,
453004535,0.027,-0.006,-1.019,
453043059,0.027,-0.007,-1.019,
453081582,0.027,-0.006,-1.019,
453120106,0.027,-0.006,-1.019,
453158629,0.027,-0.006,-1.018,
453197153,0.027,-0.006,-1.019,
453235677,0.027,-0.006,-1.019,
453274201,0.027,-0.006,-1.018,
453312724,0.027,-0.006,-1.018,
453351249,0.027,-0.006,-1.019,
453389772,0.028,-0.006,-1.019,
453428296,0.028,-0.006,-1.018,
453466819,0.027,-0.007,-1.019,
453505343,0.026,-0.006,-1.019,
453543867,0.027,-0.006,-1.018,
453582391,0.027,-0.006,-1.019,
453620914,0.027,-0.006,-1.019,
453659438,0.027,-0.006,-1.019,
453697962,0.028,-0.006,-1.019,
453736485,0.027,-0.006,-1.019,
453775009,0.027,-0.006,-1.018,
453813533,0.028,-0.006,-1.019,
453852057,0.028,-0.006,-1.019,
453890580,0.027,-0.006,-1.019,
453929104,0.027,-0.006,-1.019,
453967628,0.027,-0.006,-1.019,
454006152,0.027,-0.006,-1.019,
454044675,0.027,-0.006,-1.019,
454083199,0.027,-0.006,-1.019,
454121723,0.027,-0.006,-1.019,
454160246,0.027,-0.006,-1.019,
454198770,0.027,-0.006,-1.019,
454237293,0.027,-0.007,-1.018,
454275818,0.027,-0.006,-1.018,
454314342,0.027,-0.006,-1.019,
454352865,0.027,-0.007,-1.019,
454391389,0.027,-0.006,-1.019,
454429912,0.027,-0.006,-1.019,
454468436,0.027,-0.006,-1.02,
454506960,0.027,-0.006,-1.019,
454545483,0.027,-0.006,-1.018,
454584008,0.027,-0.006,-1.019,
454622531,0.027,-0.006,-1.019,
454661055,0.027,-0.006,-1.019,
454699579,0.027,-0.006,-1.019,
454738103,0.027,-0.006,-1.019,
454776626,0.027,-0.006,-1.019,
454815149,0.027,-0.006,-1.019,
454853673,0.027,-0.007,-1.018,
454892197,0.027,-0.006,-1.019,
454930721,0.027,-0.006,-1.019,
454969244,0.027,-0.006,-1.019,
455007768,0.027,-0.007,-1.019,
455046292,0.027,-0.006,-1.019,
455084816,0.027,-0.006,-1.019,
455123340,0.027,-0.006,-1.018,
455161863,0.027,-0.007,-1.019,
455200387,0.027,-0.006,-1.019,
455238911,0.027,-0.006,-1.019,
455277434,0.027,-0.006,-1.018,
455315958,0.027,-0.006,-1.018,
455354482,0.027,-0.006,-1.019,
455393006,0.028,-0.006,-1.019,
455431530,0.027,-0.006,-1.019,
455470053,0.026,-0.006,-1.019,
455508577,0.027,-0.006,-1.019,
455547100,0.027,-0.006,-1.018,
455585624,0.027,-0.006,-1.018,
455624148,0.027,-0.006,-1.019,
455662672,0.028,-0.006,-1.019,
455701195,0.028,-0.007,-1.018,
455739719,0.027,-0.006,-1.019,
455778243,0.027,-0.007,-1.018,
455816767,0.026,-0.007,-1.019,
455855290,0.027,-0.006,-1.019,
455893814,0.027,-0.006,-1.018,
455932338,0.027,-0.007,-1.019,
455970861,0.027,-0.006,-1.018,
456009385,0.027,-0.006,-1.019,
456047908,0.027,-0.006,-1.019,
456086432,0.028,-0.006,-1.018,
456124956,0.027,-0.006,-1.018,
456163480,0.027,-0.006,-1.019,
456202004,0.027,-0.006,-1.019,
456240527,0.027,-0.007,-1.019,
456279051,0.027,-0.006,-1.019,
456317575,0.027,-0.006,-1.019,
456356098,0.027,-0.006,-1.019,
456394622,0.027,-0.006,-1.019,
456433146,0.027,-0.006,-1.018,
456471670,0.027,-0.006,-1.019,
456510193,0.027,-0.006,-1.019,
456548717,0.027,-0.006,-1.019,
456587241,0.027,-0.006,-1.019,
456625764,0.027,-0.006,-1.019,
456664288,0.027,-0.006,-1.019,
456702812,0.027,-0.006,-1.019,
456741336,0.027,-0.006,-1.019,
456779859,0.027,-0.006,-1.019,
456818383,0.027,-0.006,-1.019,
456856907,0.027,-0.006,-1.02,
456895431,0.026,-0.006,-1.018,
456933955,0.027,-0.006,-1.018,
456972478,0.027,-0.006,-1.019,
457011002,0.027,-0.007,-1.019,
457049525,0.027,-0.006,-1.019,
457088049,0.027,-0.006,-1.019,
457126573,0.027,-0.006,-1.019,
457165097,0.027,-0.006,-1.019,
457203621,0.027,-0.007,-1.019,
457242144,0.027,-0.006,-1.019,
457280668,0.027,-0.006,-1.018,
457319192,0.027,-0.006,-1.019,
457357715,0.027,-0.007,-1.019,
457396239,0.027,-0.006,-1.018,
457434763,0.027,-0.006,-1.019,
457473286,0.027,-0.006,-1.019,
457511811,0.028,-0.006,-1.019,
457550334,0.028,-0.007,-1.019,
457588858,0.027,-0.006,-1.019,
457627381,0.027,-0.006,-1.019,
457665905,0.027,-0.007,-1.019,
457704429,0.027,-0.006,-1.018,
457742952,0.026,-0.006,-1.019,
457781477,0.027,-0.006,-1.019,
457820004,0.027,-0.006,-1.019,
457858523,0.027,-0.006,-1.018,
457897048,0.027,-0.006,-1.019,
457935571,0.027,-0.007,-1.019,
457974095,0.027,-0.006,-1.019,
458012619,0.027,-0.006,-1.019,
458051142,0.027,-0.006,-1.018,
458089666,0.027,-0.006,-1.019,
458128190,0.027,-0.007,-1.019,
458166713,0.027,-0.007,-1.019,
458205237,0.027,-0.006,-1.018,
458243761,0.027,-0.006,-1.019,
458282285,0.027,-0.007,-1.018,
458320809,0.027,-0.006,-1.019,
458359332,0.027,-0.006,-1.019,
458397856,0.027,-0.007,-1.019,
458436380,0.027,-0.007,-1.019,
458474903,0.026,-0.006,-1.018,
458513427,0.027,-0.006,-1.018,
458551951,0.027,-0.006,-1.018,
458590475,0.027,-0.006,-1.019,
458628998,0.028,-0.006,-1.018,
458667522,0.028,-0.006,-1.019,
458706046,0.027,-0.006,-1.019,
458744569,0.027,-0.006,-1.019,
458783093,0.027,-0.006,-1.019,
458821617,0.027,-0.006,-1.019,
458860140,0.027,-0.006,-1.019,
458898664,0.027,-0.006,-1.019,
458937188,0.026,-0.006,-1.019,
458975712,0.026,-0.006,-1.019,
459014235,0.027,-0.006,-1.019,
459052759,0.027,-0.006,-1.019,
459091283,0.027,-0.006,-1.019,
459129807,0.027,-0.006,-1.019,
459168330,0.027,-0.006,-1.019,
459206854,0.027,-0.007,-1.019,
459245378,0.027,-0.006,-1.019,
459283902,0.027,-0.006,-1.018,
459322425,0.027,-0.007,-1.019,
459360949,0.027,-0.006,-1.018,
459399473,0.027,-0.006,-1.019,
459437996,0.028,-0.007,-1.018,
459476520,0.027,-0.006,-1.019,
459515044,0.027,-0.006,-1.018,
459553568,0.027,-0.006,-1.019,
459592091,0.027,-0.006,-1.019,
459630615,0.027,-0.006,-1.018,
459669139,0.027,-0.006,-1.019,
459707663,0.027,-0.006,-1.019,
459746187,0.027,-0.006,-1.019,
459784710,0.027,-0.006,-1.019,
459823234,0.027,-0.006,-1.019,
459861758,0.027,-0.006,-1.019,
459900281,0.028,-0.006,-1.019,
459938805,0.027,-0.006,-1.019,
459977329,0.027,-0.007,-1.019,
460015852,0.027,-0.006,-1.018,
460054376,0.027,-0.006,-1.019,
460092900,0.027,-0.006,-1.019,
460131423,0.027,-0.006,-1.019,
460169947,0.027,-0.006,-1.019,
460208471,0.027,-0.006,-1.019,
460246995,0.027,-0.006,-1.018,
460285519,0.026,-0.007,-1.018,
460324042,0.028,-0.006,-1.018,
460362566,0.027,-0.006,-1.019,
460401090,0.027,-0.007,-1.019,
460439613,0.027,-0.007,-1.019,
460478137,0.027,-0.006,-1.019,
460516661,0.027,-0.006,-1.019,
460555184,0.027,-0.006,-1.019,
460593709,0.027,-0.006,-1.019,
460632232,0.027,-0.006,-1.018,
460670756,0.027,-0.007,-1.019,
460709280,0.027,-0.006,-1.019,
460747803,0.027,-0.006,-1.019,
460786327,0.027,-0.006,-1.019,
460824851,0.027,-0.006,-1.019,
460863374,0.027,-0.006,-1.018,
460901898,0.027,-0.006,-1.019,
460940422,0.027,-0.006,-1.019,
460978946,0.027,-0.006,-1.019,
461017469,0.027,-0.007,-1.018,
461055993,0.027,-0.007,-1.019,
461094517,0.027,-0.007,-1.019,
461133040,0.027,-0.006,-1.019,
461171564,0.027,-0.006,-1.018,
461210088,0.027,-0.006,-1.019,
461248611,0.027,-0.006,-1.019,
461287135,0.026,-0.006,-1.019,
461325659,0.027,-0.006,-1.019,
461364183,0.027,-0.006,-1.019,
461402707,0.027,-0.006,-1.019,
461441230,0.027,-0.006,-1.019,
461479754,0.027,-0.006,-1.019,
461518278,0.028,-0.006,-1.019,
461556801,0.027,-0.006,-1.018,
461595325,0.027,-0.006,-1.019,
461633849,0.027,-0.006,-1.019,
461672373,0.027,-0.006,-1.019,
461710896,0.027,-0.006,-1.019,
461749420,0.027,-0.007,-1.019,
461787944,0.027,-0.006,-1.019,
461826468,0.027,-0.006,-1.019,
461864991,0.027,-0.006,-1.019,
461903515,0.028,-0.007,-1.018,
461942039,0.027,-0.006,-1.019,
461980562,0.027,-0.007,-1.019,
462019086,0.027,-0.006,-1.019,
462057610,0.027,-0.007,-1.019,
462096134,0.027,-0.006,-1.019,
462134657,0.027,-0.006,-1.018,
462173181,0.027,-0.005,-1.019,
462211705,0.028,-0.006,-1.02,
462250228,0.028,-0.006,-1.019,
462288752,0.027,-0.006,-1.019,
462327276,0.027,-0.006,-1.019,
462365799,0.027,-0.006,-1.018,
462404323,0.027,-0.006,-1.019,
462442847,0.027,-0.006,-1.019,
462481371,0.027,-0.006,-1.019,
462519894,0.027,-0.006,-1.019,
462558418,0.028,-0.007,-1.019,
462596942,0.027,-0.007,-1.019,
462635466,0.027,-0.006,-1.018,
462673990,0.027,-0.006,-1.019,
462712513,0.027,-0.006,-1.018,
462751037,0.027,-0.006,-1.019,
462789560,0.027,-0.006,-1.018,
462828084,0.027,-0.006,-1.019,
462866608,0.027,-0.006,-1.019,
462905132,0.027,-0.006,-1.019,
462943655,0.027,-0.006,-1.019,
462982179,0.027,-0.006,-1.019,
463020703,0.028,-0.006,-1.019,
463059226,0.028,-0.006,-1.019,
463097750,0.027,-0.007,-1.018,
463136274,0.027,-0.006,-1.019,
463174798,0.027,-0.006,-1.019,
463213321,0.027,-0.006,-1.019,
463251845,0.027,-0.006,-1.019,
463290369,0.027,-0.006,-1.019,
463328892,0.028,-0.006,-1.019,
463367416,0.027,-0.006,-1.019,
463405940,0.027,-0.007,-1.019,
463444464,0.027,-0.006,-1.019,
463482987,0.027,-0.006,-1.019,
463521511,0.027,-0.006,-1.019,
463560035,0.027,-0.006,-1.019,
463598558,0.027,-0.006,-1.018,
463637082,0.027,-0.006,-1.018,
463675606,0.027,-0.006,-1.019,
463714130,0.027,-0.006,-1.019,
463752653,0.027,-0.006,-1.019,
463791177,0.027,-0.006,-1.019,
463829701,0.027,-0.006,-1.019,
463868225,0.027,-0.006,-1.019,
463906748,0.027,-0.006,-1.019,
463945272,0.027,-0.006,-1.019,
463983796,0.027,-0.006,-1.019,
464022320,0.028,-0.006,-1.019,
464060844,0.027,-0.006,-1.019,
464099367,0.027,-0.006,-1.019,
464137890,0.028,-0.006,-1.019,
464176414,0.026,-0.006,-1.019,
464214938,0.028,-0.007,-1.019,
464253462,0.027,-0.006,-1.019,
464291986,0.027,-0.006,-1.02,
464330510,0.027,-0.006,-1.019,
464369033,0.027,-0.006,-1.019,
464407557,0.027,-0.007,-1.018,
464446080,0.028,-0.006,-1.019,
464484604,0.027,-0.006,-1.019,
464523127,0.027,-0.006,-1.019,
464561652,0.027,-0.006,-1.019,
464600176,0.027,-0.006,-1.018,
464638699,0.028,-0.006,-1.019,
464677223,0.027,-0.006,-1.018,
464715746,0.027,-0.006,-1.019,
464754270,0.027,-0.006,-1.019,
464792794,0.027,-0.006,-1.019,
464831318,0.027,-0.006,-1.019,
464869841,0.027,-0.006,-1.019,
464908365,0.027,-0.006,-1.019,
464946889,0.027,-0.006,-1.019,
464985412,0.027,-0.007,-1.019,
465023936,0.027,-0.006,-1.019,
465062460,0.027,-0.006,-1.019,
465100983,0.027,-0.006,-1.019,
465139507,0.027,-0.006,-1.018,
465178031,0.027,-0.006,-1.019,
465216555,0.027,-0.006,-1.019,
465255078,0.027,-0.006,-1.019,
465293602,0.027,-0.006,-1.019,
465332126,0.027,-0.006,-1.018,
465370650,0.028,-0.006,-1.019,
465409173,0.028,-0.006,-1.019,
465447697,0.027,-0.006,-1.019,
465486221,0.027,-0.006,-1.019,
465524745,0.028,-0.006,-1.019,
465563268,0.028,-0.006,-1.019,
465601792,0.027,-0.006,-1.019,
465640316,0.027,-0.006,-1.019,
465678839,0.027,-0.005,-1.019,
465717363,0.027,-0.006,-1.019,
465755887,0.027,-0.006,-1.019,
465794411,0.027,-0.006,-1.019,
465832934,0.027,-0.006,-1.019,
465871458,0.028,-0.006,-1.019,
465909982,0.027,-0.006,-1.019,
465948506,0.027,-0.006,-1.018,
465987029,0.027,-0.006,-1.019,
466025553,0.027,-0.006,-1.018,
466064076,0.027,-0.006,-1.019,
466102600,0.027,-0.006,-1.018,
466141124,0.028,-0.006,-1.019,
466179648,0.028,-0.006,-1.018,
466218172,0.027,-0.007,-1.019,
466256696,0.027,-0.006,-1.019,
466295219,0.027,-0.006,-1.019,
466333743,0.027,-0.006,-1.019,
466372266,0.027,-0.006,-1.019,
466410790,0.028,-0.006,-1.018,
466449314,0.027,-0.006,-1.019,
466487837,0.027,-0.006,-1.019,
466526362,0.028,-0.006,-1.019,
466564885,0.027,-0.006,-1.019,
466603408,0.027,-0.006,-1.018,
466641933,0.027,-0.006,-1.019,
466680456,0.027,-0.006,-1.019,
466718980,0.027,-0.006,-1.019,
466757504,0.027,-0.006,-1.019,
466796027,0.027,-0.006,-1.019,
466834551,0.027,-0.006,-1.019,
466873075,0.027,-0.006,-1.019,
466911598,0.027,-0.006,-1.019,
466950122,0.027,-0.006,-1.018,
466988646,0.027,-0.006,-1.019,
467027170,0.027,-0.006,-1.019,
467065693,0.027,-0.006,-1.019,
467104217,0.028,-0.006,-1.019,
467142741,0.027,-0.006,-1.018,
467181265,0.027,-0.006,-1.019,
467219789,0.027,-0.006,-1.018,
467258312,0.028,-0.006,-1.019,
467296836,0.027,-0.006,-1.019,
467335359,0.027,-0.006,-1.019,
467373884,0.027,-0.007,-1.019,
467412407,0.027,-0.006,-1.019,
467450931,0.027,-0.006,-1.019,
467489454,0.027,-0.006,-1.019,
467527978,0.028,-0.007,-1.019,
467566502,0.027,-0.006,-1.019,
467605026,0.027,-0.007,-1.019,
467643549,0.027,-0.006,-1.019,
467682073,0.027,-0.006,-1.019,
467720597,0.027,-0.006,-1.018,
467759121,0.027,-0.006,-1.019,
467797644,0.027,-0.006,-1.019,
467836168,0.027,-0.007,-1.019,
467874692,0.027,-0.007,-1.019,
467913215,0.027,-0.007,-1.018,
467951739,0.027,-0.006,-1.019,
467990263,0.027,-0.006,-1.019,
468028786,0.027,-0.006,-1.019,
468067310,0.027,-0.006,-1.019,
468105834,0.027,-0.006,-1.019,
468144358,0.027,-0.006,-1.019,
468182882,0.027,-0.006,-1.019,
468221405,0.027,-0.006,-1.019,
468259929,0.027,-0.006,-1.019,
468298452,0.028,-0.005,-1.018,
468336976,0.027,-0.006,-1.019,
468375500,0.027,-0.006,-1.019,
468414024,0.027,-0.006,-1.019,
468452547,0.027,-0.006,-1.019,
468491071,0.027,-0.006,-1.019,
468529595,0.027,-0.006,-1.019,
468568119,0.027,-0.006,-1.019,
468606642,0.027,-0.006,-1.019,
468645166,0.027,-0.006,-1.019,
468683690,0.028,-0.006,-1.019,
468722213,0.028,-0.006,-1.018,
468760737,0.027,-0.006,-1.019,
468799261,0.027,-0.007,-1.019,
468837785,0.028,-0.006,-1.019,
468876308,0.028,-0.006,-1.019,
468914832,0.027,-0.006,-1.019,
468953356,0.027,-0.006,-1.018,
468991879,0.027,-0.006,-1.018,
469030403,0.027,-0.006,-1.019,
469068927,0.028,-0.006,-1.019,
469107451,0.027,-0.006,-1.019,
469145974,0.028,-0.006,-1.019,
469184498,0.027,-0.006,-1.019,
469223022,0.027,-0.006,-1.019,
469261546,0.027,-0.006,-1.019,
469300069,0.027,-0.005,-1.019,
469338593,0.027,-0.006,-1.018,
469377117,0.027,-0.006,-1.019,
469415640,0.028,-0.006,-1.018,
469454164,0.027,-0.006,-1.019,
469492688,0.027,-0.007,-1.019,
469531211,0.027,-0.005,-1.019,
469569736,0.027,-0.006,-1.019,
469608259,0.027,-0.006,-1.018,
469646782,0.027,-0.007,-1.019,
469685307,0.027,-0.006,-1.019,
469723830,0.027,-0.006,-1.019,
469762354,0.027,-0.006,-1.018,
469800878,0.028,-0.006,-1.019,
469839401,0.027,-0.006,-1.019,
469877925,0.027,-0.007,-1.019,
469916449,0.027,-0.006,-1.018,
469954972,0.027,-0.005,-1.019,
469993496,0.027,-0.005,-1.019,
470032020,0.027,-0.006,-1.018,
470070544,0.027,-0.006,-1.019,
470109068,0.027,-0.007,-1.019,
470147591,0.027,-0.006,-1.018,
470186116,0.027,-0.006,-1.019,
470224638,0.027,-0.007,-1.018,
470263162,0.027,-0.006,-1.019,
470301686,0.027,-0.006,-1.019,
470340210,0.028,-0.006,-1.019,
470378733,0.027,-0.006,-1.018,
470417257,0.027,-0.006,-1.019,
470455781,0.027,-0.006,-1.019,
470494305,0.027,-0.006,-1.019,
470532828,0.027,-0.006,-1.019,
470571352,0.027,-0.007,-1.019,
470609876,0.027,-0.006,-1.018,
470648399,0.027,-0.006,-1.019,
470686923,0.028,-0.006,-1.019,
470725447,0.027,-0.006,-1.018,
470763970,0.027,-0.006,-1.019,
470802494,0.027,-0.006,-1.019,
470841018,0.027,-0.006,-1.019,
470879542,0.027,-0.006,-1.019,
470918065,0.027,-0.006,-1.018,
470956589,0.027,-0.006,-1.019,
470995113,0.027,-0.006,-1.019,
471033637,0.027,-0.007,-1.019,
471072160,0.027,-0.006,-1.019,
471110684,0.028,-0.006,-1.019,
471149208,0.027,-0.006,-1.019,
471187732,0.028,-0.006,-1.019,
471226256,0.027,-0.006,-1.019,
471264782,0.027,-0.006,-1.019,
471303303,0.027,-0.006,-1.019,
471341827,0.027,-0.006,-1.019,
471380350,0.027,-0.006,-1.018,
471418874,0.027,-0.006,-1.018,
471457398,0.027,-0.006,-1.019,
471495921,0.027,-0.006,-1.018,
471534445,0.027,-0.006,-1.019,
471572969,0.027,-0.006,-1.019,
471611492,0.027,-0.006,-1.019,
471650016,0.027,-0.006,-1.019,
471688540,0.027,-0.006,-1.019,
471727064,0.027,-0.006,-1.018,
471765587,0.027,-0.006,-1.018,
471804111,0.028,-0.006,-1.019,
471842635,0.027,-0.006,-1.019,
471881158,0.027,-0.007,-1.019,
471919682,0.027,-0.006,-1.019,
471958206,0.027,-0.006,-1.019,
471996730,0.027,-0.006,-1.019,
472035253,0.027,-0.006,-1.019,
472073777,0.027,-0.006,-1.018,
472112300,0.028,-0.006,-1.019,
472150824,0.028,-0.006,-1.021,
472189348,0.027,-0.006,-1.018,
472227872,0.028,-0.007,-1.02,
472266395,0.027,-0.007,-1.017,
472304919,0.028,-0.006,-1.02,
472343443,0.026,-0.006,-1.018,
472381967,0.027,-0.006,-1.02,
472420490,0.026,-0.007,-1.018,
472459014,0.027,-0.006,-1.02,
472497538,0.027,-0.007,-1.018,
472536062,0.027,-0.007,-1.019,
472574586,0.027,-0.006,-1.019,
472613109,0.027,-0.006,-1.018,
472651633,0.027,-0.006,-1.019,
472690157,0.027,-0.006,-1.019,
472728680,0.027,-0.006,-1.019,
472767204,0.027,-0.006,-1.019,
472805728,0.027,-0.006,-1.019,
472844251,0.027,-0.006,-1.019,
472882775,0.027,-0.006,-1.019,
472921299,0.027,-0.006,-1.018,
472959823,0.027,-0.006,-1.019,
472998347,0.027,-0.006,-1.019,
473036870,0.027,-0.006,-1.019,
473075394,0.028,-0.006,-1.019,
473113917,0.027,-0.006,-1.019,
473152441,0.027,-0.006,-1.019,
473190965,0.027,-0.006,-1.019,
473229489,0.027,-0.006,-1.018,
473268012,0.027,-0.007,-1.019,
473306536,0.027,-0.006,-1.018,
473345059,0.027,-0.006,-1.019,
473383584,0.027,-0.006,-1.018,
473422107,0.027,-0.006,-1.019,
473460631,0.027,-0.006,-1.019,
473499155,0.027,-0.006,-1.019,
473537679,0.027,-0.006,-1.018,
473576202,0.027,-0.006,-1.018,
473614726,0.027,-0.007,-1.019,
473653250,0.027,-0.006,-1.018,
473691773,0.028,-0.007,-1.02,
473730297,0.027,-0.006,-1.018,
473768821,0.028,-0.006,-1.02,
473807344,0.027,-0.006,-1.017,
473845868,0.027,-0.006,-1.02,
473884392,0.026,-0.007,-1.017,
473922916,0.027,-0.006,-1.02,
473961439,0.027,-0.006,-1.019,
473999963,0.027,-0.006,-1.019,
474038487,0.028,-0.007,-1.019,
474077010,0.027,-0.006,-1.018,
474115534,0.027,-0.006,-1.02,
474154058,0.027,-0.006,-1.018,
474192581,0.027,-0.006,-1.019,
474231106,0.027,-0.006,-1.018,
474269629,0.027,-0.006,-1.018,
474308153,0.028,-0.006,-1.019,
474346677,0.028,-0.006,-1.018,
474385200,0.028,-0.006,-1.019,
474423724,0.027,-0.006,-1.019,
474462247,0.027,-0.007,-1.019,
474500771,0.027,-0.006,-1.018,
474539295,0.028,-0.006,-1.018,
474577818,0.027,-0.006,-1.019,
474616343,0.027,-0.006,-1.019,
474654866,0.027,-0.006,-1.019,
474693390,0.028,-0.005,-1.019,
474731914,0.027,-0.006,-1.019,
474770438,0.027,-0.006,-1.018,
474808961,0.028,-0.006,-1.019,
