#Format version: 1.0
time[us],accX[g],accY[g],accZ[g],
651556054,-0.112,0.126,-1.023,
651594578,-0.114,0.133,-1.001,
651633101,-0.11,0.141,-0.999,
651671626,-0.104,0.129,-1.018,
651710149,-0.12,0.111,-0.996,
651748673,-0.102,0.141,-1.014,
651787197,-0.115,0.108,-1.016,
651825722,-0.128,0.068,-1.013,
651864245,-0.119,0.08,-1.023,
651902769,-0.13,0.125,-1.02,
651941293,-0.133,0.16,-1.039,
651979817,-0.146,0.134,-1.122,
652018341,-0.15,0.072,-1.114,
652056865,-0.083,0.055,-1.175,
652095389,-0.055,0.085,-1.079,
652133913,-0.066,0.041,-0.895,
652172437,-0.039,-0.003,-1.017,
652210961,-0.041,0.283,-0.69,
652249485,-0.063,0.218,-0.582,
652288009,-0.124,0.089,-0.715,
652326532,-0.105,0.113,-0.874,
652365056,-0.097,0.132,-1.003,
652403580,-0.12,0.121,-1.114,
652442104,-0.129,0.128,-1.186,
652480628,-0.133,0.117,-1.308,
652519152,-0.129,0.07,-1.443,
652557676,-0.134,0.062,-1.396,
652596200,-0.112,0.053,-1.234,
652634724,-0.084,0.061,-1.07,
652673248,-0.065,0.063,-0.873,
652711772,-0.055,0.127,-0.728,
652750295,-0.038,0.097,-0.598,
652788819,0.012,0.099,-0.523,
652827343,0.009,0.119,-0.566,
652865867,-0.024,0.063,-0.753,
652904391,-0.037,0.093,-1.043,
652942915,-0.074,-0.004,-1.289,
652981439,-0.125,-0.02,-1.446,
653019963,-0.121,-0.065,-1.511,
653058487,-0.079,-0.106,-1.474,
653097011,-0.087,-0.056,-1.316,
653135535,-0.084,0.003,-1.12,
653174058,-0.064,0.056,-0.943,
653212582,-0.04,0.083,-0.778,
653251107,-0.033,0.175,-0.642,
653289630,-0.021,0.148,-0.566,
653328154,0.003,0.12,-0.516,
653366678,-0.004,0.122,-0.59,
653405202,-0.046,0.134,-0.843,
653443726,-0.094,0.083,-1.166,
653482250,-0.11,0.043,-1.446,
653520774,-0.104,0.064,-1.584,
653559297,-0.084,0.052,-1.553,
653597821,-0.065,0.002,-1.377,
653636346,-0.064,0.045,-1.153,
653674870,-0.058,0.069,-0.948,
653713393,-0.029,0.092,-0.784,
653751917,-0.01,0.134,-0.674,
653790441,0.007,0.135,-0.594,
653828965,0.03,0.117,-0.534,
653867489,0.005,0.145,-0.588,
653906013,-0.031,0.14,-0.763,
653944537,-0.037,0.092,-0.985,
653983061,-0.07,0.06,-1.241,
654021585,-0.088,0.08,-1.463,
654060109,-0.077,0.033,-1.613,
654098633,-0.063,0.005,-1.56,
654137157,-0.032,0,-1.356,
654175680,-0.045,0.007,-1.105,
654214205,-0.033,0.071,-0.872,
654252728,0.011,0.108,-0.709,
654291252,0.03,0.089,-0.624,
654329776,0.039,0.061,-0.554,
654368301,0.052,0.092,-0.547,
654406824,0.008,0.105,-0.708,
654445348,-0.03,0.151,-0.899,
654483872,-0.05,0.142,-1.091,
654522396,-0.091,0.155,-1.302,
654560920,-0.091,0.187,-1.499,
654599444,-0.071,0.094,-1.521,
654637968,-0.058,0.053,-1.381,
654676492,-0.059,0.031,-1.213,
654715016,-0.039,0.073,-1.043,
654753539,-0.02,0.093,-0.899,
654792064,-0.012,0.07,-0.793,
654830587,0.002,0.082,-0.704,
654869112,0.031,0.064,-0.637,
654907635,0.035,0.075,-0.63,
654946159,-0.006,0.12,-0.716,
654984684,-0.024,0.145,-0.885,
655023207,-0.026,0.126,-1.089,
655061731,-0.041,0.101,-1.268,
655100255,-0.064,0.075,-1.396,
655138779,-0.062,0.026,-1.458,
655177303,-0.039,-0.004,-1.385,
655215827,-0.034,-0.002,-1.241,
655254351,-0.036,0.072,-1.075,
655292874,-0.024,0.136,-0.933,
655331399,0.01,0.135,-0.832,
655369923,0.02,0.149,-0.747,
655408447,0.019,0.17,-0.676,
655446971,0.027,0.143,-0.647,
655485494,0.023,0.162,-0.684,
655524018,-0.015,0.179,-0.817,
655562543,-0.031,0.12,-1.006,
655601066,-0.042,0.096,-1.188,
655639590,-0.072,0.066,-1.338,
655678114,-0.073,0.06,-1.428,
655716638,-0.047,0.028,-1.408,
655755162,-0.036,0.009,-1.291,
655793686,-0.029,0.026,-1.111,
655832210,-0.013,0.091,-0.915,
655870734,-0.005,0.154,-0.763,
655909257,0.064,0.16,-0.691,
655947781,0.157,0.122,-0.706,
655986305,0.239,0.129,-0.779,
656024829,0.231,0.134,-0.926,
656063353,0.091,0.146,-1.065,
656101878,-0.079,0.184,-1.133,
656140402,-0.174,0.129,-1.163,
656178925,-0.25,0.106,-1.14,
656217449,-0.331,0.099,-1.1,
656255973,-0.342,0.103,-1.057,
656294497,-0.257,0.119,-1.016,
656333021,-0.13,0.082,-0.983,
656371545,0.066,0.095,-0.942,
656410069,0.224,0.079,-0.943,
656448593,0.289,0.063,-0.994,
656487116,0.339,0.066,-1.008,
656525641,0.304,0.101,-1,
656564165,0.142,0.132,-1.016,
656602689,-0.038,0.136,-1.036,
656641212,-0.161,0.089,-1.057,
656679736,-0.25,0.085,-1.081,
656718260,-0.338,0.109,-1.076,
656756785,-0.334,0.098,-1.029,
656795308,-0.237,0.113,-0.987,
656833832,-0.104,0.126,-0.956,
656872357,0.047,0.089,-0.967,
656910880,0.169,0.11,-0.996,
656949404,0.259,0.109,-1.006,
656987929,0.313,0.091,-1.026,
657026452,0.295,0.08,-1.016,
657064976,0.186,0.135,-1.009,
657103500,0.055,0.119,-1.019,
657142024,-0.063,0.099,-1.03,
657180548,-0.199,0.093,-1.055,
657219072,-0.331,0.102,-1.074,
657257596,-0.365,0.1,-1.05,
657296119,-0.32,0.106,-1.011,
657334644,-0.172,0.096,-0.984,
657373168,0.02,0.081,-0.982,
657411692,0.186,0.096,-0.985,
657450216,0.339,0.07,-1.012,
657488739,0.416,0.066,-0.984,
657527263,0.37,0.108,-0.954,
657565787,0.21,0.128,-0.969,
657604311,0.02,0.113,-1.025,
657642835,-0.159,0.046,-1.097,
657681359,-0.307,0.05,-1.128,
657719883,-0.401,0.035,-1.129,
657758407,-0.371,0.023,-1.077,
657796931,-0.251,0.083,-0.97,
657835455,-0.085,0.101,-0.925,
657873979,0.031,0.04,-0.95,
657912503,0.191,0.053,-1.005,
657951027,0.353,0.074,-1.063,
657989551,0.358,0.083,-1.066,
658028075,0.25,0.078,-1.042,
658066599,0.108,0.105,-1.014,
658105123,-0.067,0.093,-1.018,
658143647,-0.208,0.049,-1.051,
658182171,-0.284,0.053,-1.053,
658220695,-0.304,0.058,-1.044,
658259219,-0.258,0.061,-1.011,
658297743,-0.183,0.081,-0.981,
658336267,-0.055,0.072,-0.978,
658374791,0.076,0.031,-0.996,
658413314,0.169,0.055,-1.011,
658451839,0.226,0.078,-1.017,
658490362,0.224,0.072,-1.021,
658528886,0.149,0.092,-1.02,
658567410,0.02,0.108,-1.019,
658605935,-0.095,0.101,-1.017,
658644458,-0.135,0.063,-0.993,
658682983,-0.155,0.073,-0.957,
658721506,-0.172,0.084,-0.971,
658760030,-0.143,0.066,-1.053,
658798554,-0.102,0.027,-1.165,
658837078,-0.04,0.041,-1.181,
658875602,0.024,0.062,-1.135,
658914126,0.099,0.147,-1.053,
658952650,0.105,0.118,-0.956,
658991174,0.03,0.119,-0.91,
659029698,-0.127,0.116,-0.991,
659068222,-0.088,0.225,-0.889,
659106746,-0.108,0.02,-0.949,
659145270,-0.016,-0.1,-0.946,
659183794,0.055,-0.234,-0.996,
659222318,0.145,-0.27,-0.981,
659260842,0.053,-0.184,-1.053,
659299366,-0.107,0.095,-1.087,
659337890,-0.108,0.303,-1.02,
659376414,-0.192,0.537,-1.095,
659414937,-0.192,0.54,-1.062,
659453462,-0.095,0.492,-0.964,
659491985,-0.013,0.188,-0.922,
659530510,0.012,-0.015,-0.95,
659569033,-0.02,-0.185,-1,
659607558,-0.087,-0.233,-1.058,
659646081,-0.045,-0.222,-1.011,
659684605,-0.021,-0.164,-0.997,
659723130,-0.004,-0.008,-0.991,
659761654,-0.048,0.136,-1.015,
659800177,-0.076,0.268,-1.04,
659838701,-0.074,0.402,-1.064,
659877226,-0.023,0.439,-1.091,
659915749,0.025,0.391,-0.992,
659954273,-0.011,0.179,-1.007,
659992797,0.013,0.036,-0.958,
660031321,-0.044,-0.08,-0.99,
660069845,-0.051,-0.215,-0.985,
660108369,-0.064,-0.276,-1.012,
660146893,0.001,-0.207,-0.964,
660185417,0.005,-0.06,-0.987,
660223941,-0.014,0.072,-1.033,
660262465,-0.013,0.167,-1.063,
660300989,-0.015,0.278,-1.089,
660339513,0.021,0.329,-1.094,
660378037,0.054,0.316,-1.039,
660416561,0.014,0.222,-1.029,
660455085,0.022,0.123,-0.993,
660493609,0.022,-0.012,-0.966,
660532133,-0.061,-0.154,-1.024,
660570657,-0.002,-0.21,-0.962,
660609181,-0.035,-0.29,-0.983,
660647705,-0.006,-0.182,-0.958,
660686229,0.002,-0.06,-0.984,
660724753,0.005,0.01,-1.037,
660763277,0.017,0.098,-1.08,
660801801,0.024,0.216,-1.103,
660840325,0.004,0.288,-1.152,
660878849,0.09,0.321,-1.04,
660917373,0.042,0.307,-1.021,
660955897,0.021,0.142,-0.976,
660994421,0.006,-0.031,-0.971,
661032945,0,-0.108,-0.951,
661071469,-0.027,-0.198,-0.958,
661109993,0.005,-0.264,-0.938,
661148517,0.021,-0.22,-0.957,
661187041,-0.003,-0.132,-1.036,
661225564,-0.02,0.023,-1.086,
661264089,0.012,0.137,-1.099,
661302613,0.019,0.225,-1.126,
661341137,0.04,0.335,-1.114,
661379661,0.045,0.358,-1.059,
661418184,0.017,0.286,-0.986,
661456709,0.048,0.116,-0.928,
661495232,0.08,-0.086,-0.881,
661533757,0.023,-0.296,-0.932,
661572281,0.026,-0.355,-0.925,
661610805,0.06,-0.269,-0.919,
661649328,0.018,0.045,-0.979,
661687853,-0.031,0.183,-1.061,
661726377,-0.003,0.199,-1.099,
661764901,0.064,0.155,-1.053,
661803424,0.06,0.136,-1.048,
661841949,0.042,0.113,-1.02,
661880472,0.011,0.095,-1.018,
661918996,-0.009,0.119,-1.068,
661957521,-0.026,0.181,-0.978,
661996045,-0.037,0.333,-0.954,
662034569,-0.081,0.473,-0.909,
662073093,-0.112,0.617,-0.787,
662111617,-0.152,0.757,-0.696,
662150140,-0.14,0.823,-0.562,
662188664,-0.063,0.811,-0.517,
662227189,-0.087,0.891,-0.457,
662265713,-0.092,0.935,-0.486,
662304237,-0.125,0.934,-0.596,
662342761,-0.092,0.77,-0.585,
662381285,-0.072,0.648,-0.882,
662419809,-0.052,0.5,-0.868,
662458333,0.027,0.333,-0.914,
662496857,-0.016,0.126,-1.039,
662535380,0.121,-0.029,-0.991,
662573905,0.041,-0.14,-0.989,
662612429,0.04,-0.387,-0.941,
662650953,0.086,-0.442,-0.878,
662689477,0.03,-0.505,-0.861,
662728001,0.037,-0.725,-0.703,
662766524,0.04,-0.712,-0.698,
662805049,0.026,-0.751,-0.622,
662843572,0.044,-0.936,-0.395,
662882097,0.025,-0.916,-0.392,
662920621,0.048,-0.942,-0.315,
662959145,0.055,-0.948,-0.321,
662997668,0.081,-0.909,-0.387,
663036193,0.077,-0.877,-0.453,
663074717,0.084,-0.833,-0.548,
663113241,0.085,-0.687,-0.641,
663151765,0.094,-0.635,-0.764,
663190289,0.141,-0.422,-0.893,
663228813,0.078,-0.305,-0.991,
663267337,0.076,-0.152,-1.049,
663305861,0.063,0.016,-1.002,
663344385,-0.001,0.177,-1.011,
663382909,-0.012,0.399,-0.951,
663421433,-0.061,0.503,-0.915,
663459957,-0.067,0.614,-0.813,
663498481,-0.08,0.699,-0.713,
663537005,-0.122,0.746,-0.679,
663575529,-0.113,0.81,-0.596,
663614053,-0.087,0.811,-0.492,
663652577,-0.125,0.884,-0.489,
663691101,-0.107,0.89,-0.42,
663729626,-0.126,0.941,-0.384,
663768149,-0.102,0.945,-0.35,
663806673,-0.122,0.967,-0.36,
663845197,-0.155,0.986,-0.434,
663883722,-0.123,0.902,-0.5,
663922246,-0.086,0.768,-0.643,
663960769,-0.067,0.686,-0.734,
663999293,-0.04,0.587,-0.773,
664037818,-0.013,0.45,-0.883,
664076342,-0.017,0.292,-0.973,
664114865,0.037,0.213,-0.978,
664153390,0.04,0.005,-1.067,
664191914,0.118,-0.079,-0.979,
664230437,0.092,-0.291,-0.939,
664268961,0.173,-0.517,-0.889,
664307485,0.104,-0.572,-0.782,
664346010,0.1,-0.657,-0.698,
664384534,0.109,-0.783,-0.619,
664423058,0.114,-0.864,-0.521,
664461582,0.087,-0.883,-0.432,
664500106,0.078,-0.897,-0.372,
664538629,0.098,-0.966,-0.295,
664577154,0.104,-1.024,-0.252,
664615678,0.117,-0.942,-0.31,
664654202,0.107,-0.856,-0.442,
664692726,0.078,-0.792,-0.602,
664731250,0.065,-0.622,-0.737,
664769774,0.068,-0.422,-0.922,
664808298,0.084,-0.152,-1.01,
664846822,0.003,0.016,-1.009,
664885346,-0.013,0.214,-0.968,
664923870,-0.045,0.328,-0.943,
664962394,-0.044,0.473,-0.886,
665000918,-0.096,0.569,-0.854,
665039443,-0.127,0.667,-0.804,
665077966,-0.108,0.736,-0.678,
665116491,-0.121,0.792,-0.595,
665155014,-0.108,0.839,-0.524,
665193538,-0.097,0.862,-0.449,
665232062,-0.122,0.9,-0.48,
665270587,-0.117,0.923,-0.481,
665309110,-0.142,0.938,-0.509,
665347635,-0.145,0.888,-0.588,
665386158,-0.117,0.798,-0.735,
665424683,-0.034,0.672,-0.72,
665463207,-0.033,0.514,-0.861,
665501731,0.015,0.388,-0.933,
665540255,0.009,0.225,-0.924,
665578779,0.042,0.099,-1.045,
665617303,0.066,0.043,-0.993,
665655827,0.1,-0.106,-0.986,
665694351,0.139,-0.25,-0.949,
665732875,0.112,-0.449,-0.908,
665771399,0.159,-0.553,-0.857,
665809923,0.154,-0.649,-0.746,
665848448,0.136,-0.712,-0.682,
665886971,0.145,-0.761,-0.615,
665925495,0.123,-0.812,-0.55,
665964019,0.122,-0.814,-0.53,
666002543,0.1,-0.772,-0.569,
666041067,0.081,-0.752,-0.635,
666079592,0.056,-0.718,-0.734,
666118116,0.03,-0.664,-0.761,
666156639,-0.063,-0.581,-0.87,
666195164,-0.128,-0.477,-0.91,
666233688,-0.208,-0.43,-0.905,
666272212,-0.349,-0.401,-0.919,
666310736,-0.439,-0.336,-0.882,
666349259,-0.545,-0.263,-0.792,
666387783,-0.672,-0.232,-0.725,
666426308,-0.749,-0.186,-0.641,
666464831,-0.806,-0.198,-0.549,
666503356,-0.864,-0.189,-0.509,
666541880,-0.881,-0.157,-0.48,
666580404,-0.849,-0.206,-0.476,
666618928,-0.849,-0.161,-0.493,
666657452,-0.812,-0.154,-0.531,
666695976,-0.802,-0.173,-0.586,
666734501,-0.731,-0.147,-0.653,
666773025,-0.703,-0.099,-0.734,
666811548,-0.585,-0.091,-0.809,
666850072,-0.506,-0.064,-0.884,
666888596,-0.38,-0.09,-0.938,
666927120,-0.238,-0.073,-1.015,
666965644,-0.089,-0.042,-1.006,
667004169,0.092,-0.03,-1.012,
667042692,0.107,-0.064,-1.039,
667081216,0.274,-0.082,-0.983,
667119741,0.352,-0.096,-0.954,
667158265,0.478,-0.098,-0.875,
667196789,0.492,-0.11,-0.875,
667235313,0.527,-0.119,-0.847,
667273837,0.57,-0.128,-0.841,
667312361,0.543,-0.118,-0.865,
667350885,0.539,-0.131,-0.889,
667389409,0.502,-0.102,-0.904,
667427933,0.456,-0.085,-0.92,
667466457,0.37,-0.073,-0.975,
667504981,0.303,-0.02,-0.962,
667543505,0.227,-0.014,-0.973,
667582029,0.109,-0.062,-1.038,
667620553,0.063,-0.024,-1.012,
667659078,-0.059,-0.045,-1.02,
667697602,-0.133,-0.037,-0.997,
667736126,-0.184,-0.029,-0.974,
667774650,-0.301,-0.066,-0.967,
667813174,-0.344,-0.048,-0.932,
667851698,-0.426,-0.081,-0.923,
667890222,-0.443,-0.069,-0.888,
667928746,-0.522,-0.074,-0.859,
667967270,-0.553,-0.065,-0.833,
668005794,-0.591,-0.059,-0.794,
668044318,-0.636,-0.068,-0.773,
668082842,-0.629,-0.056,-0.773,
668121366,-0.63,-0.078,-0.785,
668159890,-0.597,-0.083,-0.824,
668198414,-0.557,-0.08,-0.844,
668236938,-0.526,-0.05,-0.874,
668275462,-0.479,-0.047,-0.904,
668313986,-0.408,-0.034,-0.937,
668352510,-0.317,-0.03,-0.968,
668391034,-0.232,-0.015,-0.978,
668429559,-0.139,-0.011,-1.003,
668468083,-0.024,0.016,-1.001,
668506607,0.084,0.033,-1.007,
668545131,0.191,0.013,-1.002,
668583655,0.273,-0.02,-1.031,
668622180,0.373,-0.024,-0.977,
668660703,0.421,-0.039,-0.972,
668699227,0.485,-0.05,-0.893,
668737751,0.531,-0.071,-0.856,
668776276,0.563,-0.066,-0.817,
668814799,0.578,-0.062,-0.813,
668853324,0.565,-0.077,-0.85,
668891848,0.576,-0.08,-0.88,
668930372,0.517,-0.064,-0.909,
668968896,0.447,-0.079,-0.94,
669007420,0.338,-0.067,-0.998,
669045944,0.228,-0.005,-0.988,
669084468,0.145,0.035,-0.985,
669122993,0.004,0.001,-1.011,
669161516,-0.069,0.059,-0.988,
669200041,-0.15,0.044,-0.996,
669238564,-0.216,0.064,-0.965,
669277089,-0.276,0.074,-0.961,
669315613,-0.318,0.063,-0.955,
669354137,-0.369,0.022,-0.938,
669392661,-0.398,0.047,-0.919,
669431185,-0.425,0.067,-0.885,
669469709,-0.414,0.028,-0.884,
669508233,-0.382,0.043,-0.867,
669546757,-0.354,0.051,-0.912,
669585281,-0.308,0.028,-0.988,
669623805,-0.184,0.076,-0.985,
669662329,-0.03,0.097,-0.996,
669700853,0.068,0.147,-0.986,
669739378,0.073,0.122,-1.081,
669777901,0.21,0.152,-0.975,
669816425,0.153,0.243,-0.993,
669854949,0.149,0.306,-1.029,
669893474,0.127,0.355,-0.957,
669931998,0.057,0.464,-0.882,
669970522,-0.004,0.569,-0.865,
670009046,-0.098,0.621,-0.853,
670047570,-0.191,0.702,-0.764,
670086094,-0.3,0.712,-0.764,
670124619,-0.38,0.708,-0.718,
670163142,-0.365,0.621,-0.599,
670201666,-0.415,0.516,-0.704,
670240191,-0.476,0.473,-0.654,
670278715,-0.453,0.382,-0.693,
670317239,-0.478,0.255,-0.861,
670355763,-0.403,0.237,-0.869,
670394287,-0.351,0.204,-0.919,
670432811,-0.278,0.12,-1.034,
670471335,-0.209,0.161,-0.992,
670509859,-0.142,0.136,-0.99,
670548384,0.027,0.064,-1.088,
670586907,0.14,0.001,-1.014,
670625432,0.101,0.004,-0.977,
670663956,0.146,-0.017,-0.985,
670702480,0.27,-0.091,-1.023,
670741004,0.323,-0.132,-0.967,
670779528,0.296,-0.113,-0.949,
670818052,0.227,-0.094,-1.025,
670856576,0.211,-0.085,-0.988,
670895101,0.044,0.013,-1.075,
670933624,0.011,0.089,-1.024,
670972149,-0.094,0.203,-0.962,
671010673,-0.152,0.144,-1,
671049197,-0.172,0.069,-0.966,
671087721,-0.197,0.083,-0.947,
671126245,-0.118,0.023,-0.938,
671164769,-0.094,0.029,-0.963,
671203293,-0.055,0.002,-1.06,
671241817,-0.023,-0.003,-1.179,
671280341,0.07,0.045,-1.207,
671318865,0.098,0.091,-1.136,
671357389,0.122,0.077,-1.054,
671395914,0.093,0.015,-0.986,
671434438,0.09,0.018,-0.88,
671472962,0.079,0.057,-0.793,
671511486,0.045,0.051,-0.755,
671550010,0.072,0.1,-0.726,
671588534,0.055,0.041,-0.844,
671627058,0.04,0.025,-0.972,
671665582,0.004,-0.038,-1.144,
671704106,-0.058,0.015,-1.295,
671742630,-0.079,0.069,-1.392,
671781155,-0.026,0.039,-1.368,
671819679,-0.01,0.037,-1.241,
671858203,-0.01,0.064,-1.079,
671896727,0.005,0.087,-0.912,
671935251,0.017,0.063,-0.809,
671973775,0.039,0.024,-0.76,
672012299,0.069,0.031,-0.726,
672050823,0.032,0.048,-0.773,
672089347,-0.001,0.065,-0.88,
672127871,-0.007,0.12,-1.017,
672166395,-0.013,0.123,-1.141,
672204920,-0.077,0.186,-1.252,
672243444,-0.083,0.198,-1.303,
672281968,-0.07,0.153,-1.269,
672320492,-0.033,0.082,-1.165,
672359016,-0.022,0.09,-1.006,
672397540,-0.024,0.115,-0.862,
672436064,0.005,0.037,-0.801,
672474589,0.02,0.009,-0.76,
672513113,0.01,0.03,-0.785,
672551636,-0.027,0.172,-0.876,
672590161,-0.189,0.307,-1.149,
672628685,-0.169,0.337,-1.218,
672667209,-0.073,0.125,-1.227,
672705733,0.053,-0.057,-1.151,
672744257,0.183,-0.201,-1.022,
672782781,0.222,-0.275,-0.921,
672821306,0.157,-0.206,-0.866,
672859830,0.075,0.065,-0.835,
672898353,-0.079,0.324,-0.983,
672936878,-0.191,0.479,-1.129,
672975402,-0.211,0.597,-1.183,
673013926,-0.116,0.535,-1.081,
673052450,-0.06,0.372,-1.028,
673090974,0.029,0.262,-0.919,
673129499,0.045,0.059,-0.914,
673168022,0.054,-0.256,-0.977,
673206547,0.057,-0.414,-1.007,
673245071,0.06,-0.42,-0.991,
673283595,0.109,-0.303,-0.9,
673322119,0.072,-0.128,-0.916,
673360643,-0.047,0.114,-1.037,
673399167,-0.051,0.275,-1.05,
673437691,-0.061,0.401,-1.08,
673476215,-0.073,0.447,-1.119,
673514739,-0.064,0.487,-1.078,
673553264,-0.03,0.428,-1.025,
673591788,-0.01,0.227,-0.997,
673630312,-0.019,0.031,-0.983,
673668836,0.023,-0.139,-0.953,
673707360,0.036,-0.415,-0.951,
673745884,0.092,-0.425,-0.905,
673784409,0.063,-0.33,-0.938,
673822933,0.048,-0.145,-0.909,
673861457,-0.124,0.158,-1.025,
673899981,-0.229,0.398,-1.158,
673938505,-0.069,0.416,-1.141,
673977029,0.142,0.217,-1.097,
674015553,0.355,0.079,-1.051,
674054077,0.545,-0.056,-0.908,
674092602,0.505,-0.078,-0.832,
674131126,0.227,-0.067,-0.933,
674169650,-0.081,0.094,-1.002,
674208174,-0.297,0.219,-1.052,
674246698,-0.384,0.177,-1.074,
674285222,-0.436,0.172,-1.09,
674323747,-0.386,0.133,-1.065,
674362271,-0.256,0.085,-1.018,
674400795,-0.124,0.087,-0.977,
674439319,-0.042,0.079,-1.014,
674477843,0.049,0.022,-1.021,
674516367,0.205,0.007,-1.001,
674554891,0.296,-0.037,-1.053,
674593415,0.372,-0.05,-1.062,
674631939,0.39,-0.045,-1.004,
674670464,0.235,0.033,-1.009,
674708988,0.026,0.164,-1.023,
674747512,-0.081,0.199,-1.002,
674786036,-0.157,0.165,-1.003,
674824560,-0.223,0.127,-1.055,
674863084,-0.229,0.059,-1.029,
674901608,-0.145,0.015,-1.009,
674940133,-0.081,0.343,-1.086,
674978656,0.007,0.35,-1.114,
675017181,0.099,0.303,-1.047,
675055705,0.114,0.13,-0.982,
675094229,0.082,-0.045,-0.964,
675132753,0.044,-0.132,-0.936,
675171277,-0.017,-0.185,-0.944,
675209801,-0.114,-0.317,-1.007,
675248326,-0.072,-0.302,-0.931,
675286850,-0.072,-0.064,-0.95,
675325374,-0.07,0.008,-0.993,
675363898,-0.06,0.034,-1.058,
675402423,0.023,0.168,-1.053,
675440947,0.103,0.166,-1.092,
675479471,0.219,0.147,-1.092,
675517995,0.239,0.17,-1.079,
675556519,0.216,0.193,-1.04,
675595043,0.177,0.173,-0.976,
675633567,0.096,0.05,-0.97,
675672092,-0.011,0.082,-0.977,
675710615,-0.115,0.026,-1.016,
675749139,-0.2,0.081,-1.021,
675787664,-0.221,0.077,-0.988,
675826188,-0.254,0.047,-1.017,
675864712,-0.267,0.003,-1.045,
675903236,-0.217,0.064,-1.034,
675941761,-0.169,0.084,-0.981,
675980285,-0.137,0.097,-0.967,
676018809,-0.108,0.119,-0.984,
676057332,-0.088,0.064,-1.021,
676095857,-0.051,0.1,-1.022,
676134381,-0.073,0.097,-1.043,
676172906,-0.028,0.065,-1.007,
676211430,-0.006,0.128,-0.997,
676249954,-0.022,0.189,-0.976,
676288478,-0.008,0.205,-0.982,
676327002,0.028,0.252,-0.976,
676365526,0.06,0.201,-1.072,
676404050,0.127,0.197,-1.052,
676442574,0.148,0.231,-1.07,
676481099,0.105,0.237,-1.073,
676519623,0.031,0.321,-1.063,
676558147,-0.013,0.355,-1.014,
676596671,-0.048,0.362,-0.97,
676635195,-0.033,0.124,-0.991,
676673719,-0.024,-0.011,-0.997,
676712244,0.002,-0.103,-0.977,
676750768,0.001,-0.165,-1.022,
676789292,0.026,-0.165,-0.989,
676827816,0.04,-0.116,-0.971,
676866340,0.038,-0.043,-0.947,
676904864,0.027,0.027,-0.951,
676943388,-0.065,0.08,-1.05,
676981913,-0.136,0.179,-1.095,
677020437,-0.061,0.168,-0.987,
677058961,-0.128,0.169,-1.077,
677097485,-0.114,0.158,-1.008,
677136009,-0.126,0.22,-0.992,
677174534,-0.251,0.494,-1.084,
677213058,-0.201,0.614,-1.035,
677251582,-0.058,0.553,-0.924,
677290106,-0.028,0.408,-0.915,
677328630,-0.01,0.16,-0.925,
677367154,-0.035,0.124,-0.932,
677405678,-0.151,0.089,-1.088,
677444203,-0.188,0.069,-1.06,
677482727,-0.208,0.084,-1.045,
677521251,-0.214,0.074,-1.018,
677559775,-0.176,0.081,-0.989,
677598300,-0.152,0.092,-0.961,
677636824,-0.116,-0.004,-0.969,
677675348,-0.104,-0.017,-0.97,
677713872,-0.064,0.063,-0.955,
677752396,-0.051,0.051,-0.953,
677790920,-0.005,0.016,-0.989,
677829444,0.028,0.018,-0.985,
677867969,0.024,-0.046,-1.049,
677906493,0.086,0,-0.988,
677945017,0.068,-0.017,-1.034,
677983541,0.114,0.046,-1.047,
678022065,0.128,0.069,-1.063,
678060590,0.051,0.158,-1.167,
678099113,0.101,0.14,-1.103,
678137638,0.12,0.104,-1.074,
678176162,0.083,0.146,-1.049,
678214687,0.008,0.209,-1.099,
678253210,0.026,0.214,-0.993,
678291735,-0.086,0.274,-1.059,
678330258,-0.156,0.275,-1.101,
678368783,-0.127,0.264,-0.951,
678407307,-0.173,0.25,-0.972,
678445831,-0.194,0.156,-0.945,
678484355,-0.236,0.174,-0.951,
678522880,-0.262,0.157,-0.938,
678561404,-0.342,0.105,-0.994,
678599928,-0.251,-0.091,-0.951,
678638452,-0.144,-0.182,-0.963,
678676977,-0.044,-0.109,-1.025,
678715500,0.134,-0.041,-1.025,
678754025,0.193,-0.016,-1.115,
678792549,0.196,0.04,-1.122,
678831073,0.15,0.083,-1.113,
678869597,0.14,0.056,-1.066,
678908121,0.114,0.022,-1.014,
678946645,0.058,-0.012,-0.958,
678985170,-0.044,-0.058,-0.979,
679023694,-0.086,-0.071,-0.959,
679062218,-0.165,-0.028,-0.961,
679100742,-0.262,0.029,-0.987,
679139267,-0.223,0.069,-0.92,
679177791,-0.239,0.066,-0.956,
679216315,-0.268,0.052,-0.975,
679254839,-0.208,0.067,-0.981,
679293363,-0.209,0.075,-1.016,
679331888,-0.188,0.139,-1.05,
679370412,-0.144,0.165,-1.099,
679408936,-0.138,0.193,-1.144,
679447460,-0.053,0.147,-1.177,
679485985,0.047,0.109,-1.133,
679524509,0.085,0.062,-1.163,
679563033,0.202,-0.118,-1.172,
679601557,0.275,-0.185,-1.171,
679640081,0.052,0.013,-1.115,
679678605,-0.052,-0.034,-1.098,
679717129,-0.032,-0.003,-0.898,
679755654,0,-0.015,-0.778,
679794178,-0.039,0.012,-0.742,
679832702,0.034,0.014,-0.615,
679871226,0.021,0.008,-0.657,
679909750,-0.037,0.018,-0.811,
679948275,0.022,0.001,-0.869,
679986799,-0.05,-0.068,-1.042,
680025323,-0.065,-0.141,-1.174,
680063847,-0.031,-0.167,-1.149,
680102371,-0.119,-0.159,-1.217,
680140895,-0.134,-0.15,-1.282,
680179420,-0.116,-0.159,-1.324,
680217944,-0.102,-0.204,-1.338,
680256468,-0.051,-0.198,-1.208,
680294993,0.008,-0.157,-1.084,
680333517,-0.003,-0.09,-1.018,
680372041,0.002,-0.023,-0.949,
680410565,0.003,0.033,-0.877,
680449090,0.036,0.043,-0.785,
680487614,0.039,0.032,-0.769,
680526137,0.07,0.018,-0.711,
680564662,0.087,0.007,-0.69,
680603186,0.052,0.041,-0.771,
680641710,0.009,0.029,-0.866,
680680234,-0.03,-0.04,-1.005,
680718759,-0.001,-0.059,-1.043,
680757283,-0.08,-0.036,-1.225,
680795807,-0.11,0.037,-1.359,
680834331,-0.093,0.038,-1.377,
680872856,-0.076,0.032,-1.356,
680911380,-0.041,0.073,-1.23,
680949904,-0.032,-0.005,-1.171,
680988428,0.02,0.056,-1.013,
681026952,0.008,0.004,-1.008,
681065477,0.01,-0.07,-0.946,
681104001,0.033,-0.153,-0.883,
681142525,0.04,-0.104,-0.748,
681181049,0.148,-0.101,-0.629,
681219573,0.043,-0.295,-0.813,
681258098,0.021,-0.316,-0.838,
681296622,-0.006,-0.448,-0.915,
681335146,-0.024,-0.523,-0.955,
681373671,0.031,-0.666,-0.907,
681412194,0.006,-0.693,-0.911,
681450719,-0.031,-0.656,-0.863,
681489243,-0.149,-0.779,-0.877,
681527767,-0.116,-0.659,-0.79,
681566291,-0.157,-0.612,-0.792,
681604816,-0.117,-0.421,-0.832,
681643340,-0.075,-0.357,-0.836,
681681864,-0.116,-0.265,-0.889,
681720389,-0.056,-0.22,-0.899,
681758912,-0.061,-0.141,-0.931,
681797437,-0.074,-0.058,-0.957,
681835961,-0.08,0.061,-0.995,
681874485,-0.106,0.165,-1.006,
681913009,-0.06,0.266,-0.889,
681951534,-0.073,0.309,-0.915,
681990058,-0.152,0.435,-0.959,
682028582,-0.164,0.636,-0.935,
682067106,-0.181,0.683,-0.944,
682105630,-0.173,0.752,-0.889,
682144155,-0.255,0.807,-0.808,
682182679,-0.325,0.788,-0.665,
682221203,-0.383,0.791,-0.676,
682259728,-0.413,0.682,-0.713,
682298251,-0.423,0.514,-0.719,
682336776,-0.396,0.339,-0.763,
682375300,-0.392,0.109,-0.815,
682413824,-0.432,-0.085,-0.815,
682452349,-0.476,-0.116,-0.755,
682490873,-0.543,-0.251,-0.733,
682529397,-0.577,-0.283,-0.697,
682567921,-0.604,-0.263,-0.679,
682606446,-0.69,-0.318,-0.676,
682644970,-0.7,-0.308,-0.681,
682683494,-0.74,-0.286,-0.686,
682722018,-0.707,-0.279,-0.702,
682760542,-0.672,-0.277,-0.756,
682799067,-0.639,-0.299,-0.792,
682837590,-0.597,-0.273,-0.804,
682876116,-0.506,-0.289,-0.795,
682914639,-0.482,-0.26,-0.836,
682953163,-0.351,-0.278,-0.841,
682991688,-0.302,-0.325,-0.889,
683030212,-0.178,-0.304,-0.913,
683068736,-0.118,-0.334,-0.947,
683107260,-0.01,-0.288,-0.953,
683145785,0.053,-0.295,-0.995,
683184309,0.14,-0.324,-0.968,
683222834,0.226,-0.298,-0.995,
683261358,0.246,-0.377,-0.954,
683299882,0.362,-0.307,-0.903,
683338406,0.435,-0.312,-0.9,
683376930,0.42,-0.393,-0.89,
683415455,0.515,-0.34,-0.836,
683453979,0.579,-0.294,-0.833,
683492503,0.475,-0.295,-0.887,
683531027,0.464,-0.336,-0.934,
683569552,0.418,-0.303,-0.91,
683608076,0.352,-0.257,-0.907,
683646600,0.12,-0.271,-0.936,
683685125,0.058,-0.204,-0.937,
683723648,-0.125,-0.167,-0.909,
683762173,-0.241,-0.187,-0.931,
683800697,-0.288,-0.145,-0.927,
683839221,-0.401,-0.129,-0.898,
683877745,-0.425,-0.118,-0.893,
683916270,-0.446,-0.063,-0.889,
683954794,-0.506,0.008,-0.876,
683993318,-0.542,-0.011,-0.895,
684031843,-0.453,0.063,-0.837,
684070367,-0.486,0.063,-0.878,
684108891,-0.463,0.061,-0.888,
684147416,-0.388,0.106,-0.918,
684185940,-0.345,0.143,-0.987,
684224464,-0.259,0.208,-0.958,
684262988,-0.184,0.376,-0.908,
684301512,-0.155,0.469,-0.986,
684340037,-0.009,0.544,-0.853,
684378561,0.018,0.528,-0.89,
684417085,0.149,0.527,-0.824,
684455609,0.209,0.522,-0.834,
684494134,0.204,0.51,-0.826,
684532658,0.239,0.484,-0.948,
684571182,0.236,0.364,-0.882,
684609706,0.202,0.256,-1.086,
684648231,0.007,0.088,-1.15,
684686755,-0.004,-0.088,-1.04,
684725279,-0.015,-0.225,-0.96,
684763803,-0.187,-0.416,-0.892,
684802328,-0.133,-0.483,-0.834,
684840852,-0.259,-0.579,-0.815,
684879376,-0.325,-0.608,-0.756,
684917900,-0.247,-0.633,-0.687,
684956425,-0.279,-0.681,-0.637,
684994949,-0.243,-0.767,-0.538,
685033473,-0.111,-0.755,-0.537,
685071997,-0.148,-0.828,-0.501,
685110521,-0.09,-0.894,-0.464,
685149046,-0.016,-0.806,-0.517,
685187570,0.04,-0.894,-0.469,
685226094,0.043,-0.984,-0.422,
685264619,0.107,-0.899,-0.412,
685303143,0.057,-0.997,-0.241,
685341667,0.057,-1.009,-0.179,
685380192,0.074,-1.037,-0.121,
685418716,0.056,-1.007,-0.177,
685457240,0.063,-0.951,-0.268,
685495764,0.07,-0.912,-0.361,
685534289,0.097,-0.857,-0.457,
685572813,0.023,-0.771,-0.563,
685611338,-0.02,-0.733,-0.652,
685649861,0,-0.682,-0.722,
685688386,-0.013,-0.524,-0.787,
685726910,-0.035,-0.462,-0.882,
685765434,-0.041,-0.347,-0.959,
685803958,-0.064,-0.139,-0.968,
685842483,-0.091,-0.014,-1.056,
685881008,-0.122,0.163,-1.05,
685919531,-0.111,0.315,-0.954,
685958055,-0.111,0.376,-0.966,
685996580,-0.123,0.448,-0.931,
686035105,-0.157,0.525,-1.013,
686073629,-0.11,0.445,-1.071,
686112153,-0.03,0.226,-1.098,
686150677,-0.076,-0.08,-1.004,
686189202,-0.036,-0.314,-0.952,
686227726,-0.009,-0.499,-0.833,
686266250,-0.026,-0.617,-0.711,
686304775,-0.046,-0.76,-0.597,
686343299,-0.048,-0.856,-0.437,
686381823,-0.04,-0.898,-0.343,
686420347,-0.061,-0.939,-0.209,
686458872,0.038,-0.984,-0.09,
686497395,-0.004,-1.02,0.035,
686535920,-0.01,-0.998,0.102,
686574444,-0.041,-0.959,0.247,
686612969,-0.068,-0.965,0.31,
686651493,-0.014,-0.838,0.315,
686690017,-0.013,-0.732,0.58,
686728541,-0.05,-0.719,0.879,
686767065,-0.062,-0.612,0.819,
686805590,-0.019,-0.534,0.822,
686844114,-0.087,-0.533,0.821,
686882639,-0.089,-0.372,0.875,
686921163,-0.008,-0.093,0.994,
686959687,-0.028,-0.055,1,
686998211,-0.035,-0.007,0.957,
687036736,-0.045,0.156,0.926,
687075260,-0.061,0.243,0.949,
687113785,-0.115,0.373,0.939,
687152309,-0.098,0.558,0.793,
687190833,-0.125,0.739,0.71,
687229357,-0.14,0.801,0.595,
687267881,-0.109,0.908,0.272,
687306406,-0.167,1.009,0.109,
687344930,-0.126,1.013,0.035,
687383454,-0.198,0.972,-0.197,
687421979,-0.15,0.926,-0.311,
687460503,-0.094,0.907,-0.328,
687499027,-0.086,0.867,-0.44,
687537552,-0.06,0.814,-0.52,
687576076,-0.108,0.807,-0.62,
687614600,-0.071,0.768,-0.68,
687653124,-0.071,0.737,-0.725,
687691649,-0.085,0.75,-0.703,
687730173,-0.084,0.754,-0.737,
687768697,-0.097,0.804,-0.679,
687807221,-0.115,0.822,-0.636,
687845746,-0.066,0.855,-0.577,
687884270,-0.106,0.924,-0.464,
687922795,-0.106,0.946,-0.273,
687961319,-0.152,0.972,-0.13,
687999843,-0.12,0.994,0.044,
688038368,-0.085,0.905,0.24,
688076891,-0.094,0.869,0.401,
688115416,-0.061,0.761,0.593,
688153940,-0.021,0.596,0.681,
688192464,-0.065,0.544,0.811,
688230989,-0.042,0.424,0.878,
688269513,-0.024,0.298,0.916,
688308037,-0.004,0.221,0.945,
688346562,-0.02,0.063,0.974,
688385086,0.015,-0.166,0.967,
688423610,0.024,-0.339,0.924,
688462135,-0.005,-0.494,0.906,
688500659,0.011,-0.582,0.864,
688539183,0.019,-0.694,0.733,
688577707,0.005,-0.824,0.656,
688616232,0.028,-0.813,0.573,
688654756,-0.008,-0.907,0.508,
688693281,0.001,-0.939,0.37,
688731805,0.041,-0.896,0.249,
688770329,0.034,-0.968,0.131,
688808853,0.043,-0.945,-0.033,
688847377,0.09,-0.915,-0.07,
688885902,0.106,-0.989,-0.217,
688924427,0.138,-0.977,-0.327,
688962951,0.153,-0.849,-0.408,
689001475,0.188,-0.891,-0.525,
689040005,0.209,-0.81,-0.595,
689078523,0.191,-0.714,-0.693,
689117048,0.178,-0.697,-0.741,
689155572,0.217,-0.67,-0.782,
689194096,0.188,-0.582,-0.757,
689232621,0.134,-0.574,-0.869,
689271145,0.157,-0.458,-0.897,
689309669,0.048,-0.406,-0.917,
689348194,0.126,-0.434,-0.996,
689386718,0.05,-0.321,-1.026,
689425242,0.104,-0.163,-0.908,
689463767,0.05,-0.161,-1.004,
689502291,0.045,-0.039,-0.905,
689540815,0.026,0.013,-0.991,
689579340,-0.039,0.068,-1.021,
689617864,-0.049,0.193,-0.965,
689656388,-0.088,0.271,-0.989,
689694913,-0.14,0.353,-1.009,
689733437,-0.159,0.467,-0.9,
689771961,-0.156,0.466,-0.935,
689810486,-0.161,0.544,-0.813,
689849010,-0.138,0.603,-0.886,
689887534,-0.213,0.718,-0.645,
689926058,-0.164,0.709,-0.711,
689964583,-0.142,0.776,-0.496,
690003107,-0.174,0.835,-0.582,
690041632,-0.094,0.867,-0.39,
690080156,-0.089,0.971,-0.315,
690118680,-0.101,1.038,-0.187,
690157205,0.007,1.02,0.014,
690195729,-0.018,0.992,0.201,
690234253,-0.009,0.846,0.335,
690272778,0.077,0.776,0.577,
690311302,0.132,0.751,0.731,
690349826,0.157,0.586,0.769,
690388350,0.14,0.564,0.889,
690426874,0.183,0.355,0.911,
690465399,0.215,0.193,0.964,
690503923,0.123,0.295,1.028,
690542447,0.132,0.077,0.873,
690580972,0.112,-0.06,0.968,
690619496,0.134,-0.184,0.919,
690658020,0.155,-0.203,0.993,
690696545,0.071,-0.398,0.854,
690735069,0.111,-0.543,0.775,
690773594,0.046,-0.784,0.703,
690812118,0.034,-0.779,0.359,
690850642,-0.063,-0.96,0.169,
690889167,-0.142,-1.009,-0.03,
690927691,-0.146,-0.937,-0.222,
690966215,-0.162,-1.043,-0.213,
691004740,-0.177,-0.863,-0.434,
691043264,-0.215,-0.796,-0.595,
691081788,-0.148,-0.869,-0.606,
691120313,-0.041,-0.785,-0.652,
691158837,-0.057,-0.721,-0.761,
691197361,-0.002,-0.592,-0.936,
691235886,-0.009,-0.44,-0.799,
691274410,-0.07,-0.479,-0.599,
691312934,-0.132,-0.596,-0.768,
691351459,-0.066,-0.376,-1.058,
691389983,-0.115,0.005,-0.908,
691428507,-0.022,0.093,-1.077,
691467031,-0.033,0.206,-1.168,
691505556,-0.09,0.233,-1.08,
691544080,-0.089,0.218,-0.992,
691582605,-0.096,0.247,-0.957,
691621129,-0.114,0.288,-1.015,
691659653,-0.132,0.264,-0.995,
691698178,-0.152,0.238,-0.996,
691736702,-0.166,0.239,-1.012,
691775226,-0.241,0.216,-1.05,
691813751,-0.254,0.209,-1.004,
691852275,-0.215,0.222,-1.041,
691890799,-0.247,0.25,-0.971,
691929324,-0.186,0.218,-0.996,
691967848,-0.177,0.183,-1.029,
692006372,-0.122,0.242,-0.961,
692044897,-0.032,0.254,-0.888,
692083421,0.039,0.291,-0.974,
692121945,0.113,0.284,-0.944,
692160470,0.207,0.306,-0.925,
692198994,0.233,0.291,-1.033,
692237519,0.29,0.286,-1.002,
692276043,0.297,0.322,-1.007,
692314567,0.243,0.287,-1.021,
692353092,0.194,0.286,-0.985,
692391616,0.055,0.189,-0.984,
692430140,0.042,0.242,-0.993,
692468665,-0.09,0.203,-0.987,
692507189,-0.162,0.162,-0.99,
692545713,-0.201,0.171,-0.932,
692584238,-0.225,0.167,-0.955,
692622762,-0.244,0.217,-0.953,
692661286,-0.335,0.161,-1.052,
692699811,-0.375,0.185,-0.971,
692738335,-0.384,0.158,-0.976,
692776859,-0.324,0.152,-0.97,
692815383,-0.257,0.128,-0.994,
692853908,-0.23,0.138,-1.026,
692892432,-0.213,0.16,-0.96,
692930957,-0.144,0.114,-0.962,
692969481,-0.048,0.134,-1.017,
693008005,0.004,0.165,-0.991,
693046530,0.119,0.21,-0.978,
693085054,0.205,0.263,-1.05,
693123579,0.237,0.316,-1.045,
693162103,0.303,0.363,-0.98,
693200627,0.279,0.38,-1.013,
693239151,0.278,0.397,-0.958,
693277676,0.203,0.359,-0.965,
693316201,0.101,0.29,-0.93,
693354725,0.069,0.245,-0.927,
693393249,0.005,0.169,-0.969,
693431774,-0.035,0.124,-0.978,
693470298,-0.154,0.111,-0.969,
693508822,-0.294,0.133,-0.98,
693547347,-0.332,0.056,-1.013,
693585870,-0.323,0.035,-1.076,
693624395,-0.301,-0.005,-0.893,
693662919,-0.221,-0.16,-1.126,
693701444,-0.132,-0.199,-1.273,
693739968,-0.048,0.063,-1.334,
693778493,-0.03,0.082,-1.151,
693817017,-0.105,0.002,-1.043,
693855541,-0.091,0.08,-0.853,
693894065,-0.036,0.04,-0.857,
693932590,-0.021,0.098,-0.716,
693971114,-0.001,0.171,-0.579,
694009639,0,0.17,-0.62,
694048163,-0.025,0.236,-0.652,
694086687,-0.116,0.185,-0.89,
694125212,-0.109,0.101,-1.327,
694163736,-0.116,0.04,-1.645,
694202260,-0.092,0.11,-1.47,
694240785,-0.088,0.108,-1.389,
694279310,-0.072,0.112,-1.189,
694317834,-0.066,0.111,-1.049,
694356358,-0.059,0.125,-0.956,
694394882,-0.059,0.133,-0.847,
694433406,-0.032,0.172,-0.751,
694471931,0.013,0.177,-0.683,
694510456,0.042,0.163,-0.639,
694548980,0.055,0.146,-0.644,
694587504,-0.007,0.042,-0.819,
694626029,0.009,0.013,-1.025,
694664553,-0.002,-0.067,-1.255,
694703078,-0.118,0.035,-1.364,
694741602,-0.171,0.065,-1.494,
694780126,-0.169,0.074,-1.408,
694818651,0.101,0.028,-1.14,
694857175,0.055,-0.014,-0.999,
694895699,0.001,-0.081,-0.929,
694934224,-0.05,-0.07,-0.837,
694972748,-0.095,-0.025,-0.866,
695011272,-0.08,0.017,-0.845,
695049797,0.031,-0.178,-0.727,
695088321,-0.143,-0.268,-1.089,
695126846,-0.182,-0.072,-0.986,
695165370,-0.109,-0.151,-1.054,
695203894,-0.051,-0.106,-1.188,
695242419,-0.059,-0.015,-1.014,
695280943,0.052,-0.079,-1.12,
695319468,0.106,0.041,-1.014,
695357992,0.084,-0.082,-0.912,
695396516,-0.023,-0.183,-0.894,
695435041,0.126,0.005,-0.885,
695473565,-0.019,-0.007,-0.94,
695512089,0.127,-0.061,-0.907,
695550614,0.192,0.068,-1.046,
695589138,-0.006,0.085,-1.105,
695627662,0.169,0.02,-0.989,
695666187,0.084,0.207,-1.102,
695704711,0.05,0.169,-1.153,
695743236,-0.009,0.258,-1.166,
695781760,-0.058,0.169,-1.047,
695820285,0.029,0.087,-0.968,
695858809,0.109,-0.107,-0.997,
695897333,0.204,-0.006,-1.017,
695935858,0.12,-0.075,-0.991,
695974382,0.118,-0.145,-0.96,
696012907,0.049,-0.126,-1.01,
696051431,0.013,-0.013,-0.981,
696089955,-0.051,-0.27,-0.872,
696128480,-0.075,-0.113,-1.04,
696167004,-0.137,-0.012,-1.061,
696205528,-0.113,-0.073,-0.955,
696244053,-0.191,-0.013,-1.078,
696282577,-0.105,-0.157,-1.071,
696321101,-0.083,-0.248,-1.027,
696359626,-0.047,-0.144,-1.018,
696398150,-0.068,-0.179,-1.02,
696436674,-0.128,-0.093,-0.99,
696475199,-0.009,-0.049,-1.104,
696513723,-0.082,-0.225,-0.93,
696552248,-0.012,-0.092,-0.912,
696590772,0.018,-0.202,-1.122,
696629297,0.025,-0.106,-0.962,
696667821,-0.005,-0.135,-0.927,
696706346,-0.003,-0.056,-1.056,
696744870,0.009,-0.059,-1.085,
696783394,0.064,-0.317,-1.149,
696821918,0.078,-0.467,-1.079,
696860443,0.024,-0.471,-0.747,
696898967,-0.065,-0.67,-1.119,
696937491,-0.002,-0.495,-0.979,
696976016,-0.098,-0.455,-0.844,
697014541,-0.172,-0.49,-0.901,
697053065,-0.25,-0.297,-0.886,
697091590,-0.229,-0.288,-0.94,
697130113,-0.07,-0.126,-0.811,
697168638,-0.155,-0.223,-0.813,
697207162,-0.246,-0.143,-0.74,
697245687,-0.21,-0.092,-0.691,
697284211,-0.21,-0.115,-0.773,
697322736,-0.191,-0.181,-0.814,
697361260,-0.126,-0.205,-0.946,
697399784,0.003,-0.3,-1.147,
697438309,0.003,-0.323,-1.248,
697476833,0.023,-0.481,-1.304,
697515358,0.02,-0.6,-1.329,
697553882,0.086,-0.576,-1.348,
697592407,0.116,-0.559,-1.005,
697630931,0.121,-0.485,-0.848,
697669455,0.069,-0.515,-0.748,
697707980,-0.012,-0.553,-0.613,
697746504,-0.003,-0.407,-0.589,
697785028,-0.071,-0.276,-0.672,
697823553,-0.111,-0.195,-0.666,
697862077,-0.068,-0.125,-0.627,
697900602,-0.142,-0.19,-0.791,
697939126,-0.193,-0.154,-0.846,
697977650,-0.18,-0.259,-0.966,
698016175,-0.124,-0.293,-1.225,
698054700,-0.294,-0.378,-1.412,
698093224,-0.218,-0.407,-1.448,
698131749,-0.071,-0.407,-1.452,
698170273,-0.093,-0.368,-1.254,
698208797,-0.036,-0.262,-1.031,
698247321,-0.008,-0.142,-0.868,
698285846,-0.001,0,-0.742,
698324371,-0.001,-0.023,-0.648,
698362895,-0.015,-0.05,-0.615,
698401419,0.015,-0.061,-0.567,
698439944,0.015,-0.134,-0.668,
698478468,-0.019,-0.184,-0.788,
698516992,-0.087,-0.192,-1.002,
698555517,-0.18,-0.151,-1.228,
698594041,-0.276,-0.074,-1.4,
698632566,-0.134,-0.078,-1.403,
698671090,0.108,-0.051,-1.364,
698709614,0.207,-0.055,-1.269,
698748139,-0.049,-0.051,-1.104,
698786664,-0.155,-0.034,-0.956,
698825188,-0.14,-0.017,-0.964,
698863712,-0.249,-0.069,-0.943,
698902236,-0.222,-0.019,-1.016,
698940761,-0.254,-0.029,-0.969,
698979285,-0.305,-0.119,-1.001,
699017810,-0.184,-0.118,-0.953,
699056334,-0.184,-0.182,-0.769,
699094859,-0.146,-0.289,-0.939,
699133383,-0.004,-0.268,-0.959,
699171907,0.091,-0.118,-0.905,
699210432,0.056,-0.031,-0.978,
699248957,0.078,0.018,-1,
699287480,0.023,0.084,-1.118,
699326005,-0.048,0.143,-1.145,
699364530,-0.027,0.222,-1.178,
699403054,-0.147,0.31,-1.128,
699441579,-0.323,0.384,-1.143,
699480103,-0.448,0.338,-1.034,
699518627,-0.553,0.242,-1.025,
699557152,-0.461,0.098,-0.944,
699595676,-0.404,-0.026,-0.919,
699634201,-0.342,-0.155,-0.873,
699672725,-0.332,-0.181,-0.91,
699711249,-0.06,0.024,-0.96,
699749774,0.082,0.011,-0.947,
699788298,0.216,0.03,-1.069,
699826823,0.409,0.05,-1.051,
699865347,0.528,0.029,-1.013,
699903871,0.544,0.04,-0.968,
699942396,0.362,0.026,-0.922,
699980920,-0.08,-0.037,-0.975,
700019445,-0.301,-0.038,-0.991,
700057969,-0.622,-0.043,-1.011,
700096494,-0.801,-0.04,-1.094,
700135018,-0.724,-0.111,-0.986,
700173542,-0.534,-0.035,-0.975,
700212067,-0.347,-0.043,-0.948,
700250591,-0.201,0.029,-1.001,
700289116,0.015,-0.072,-1.031,
700327640,0.279,-0.303,-1.012,
700366164,0.448,-0.394,-0.841,
700404689,0.305,-0.244,-0.821,
700443214,0.132,0.011,-1.015,
700481738,-0.299,0.345,-1.212,
700520262,-0.588,0.631,-1.432,
700558787,-0.455,0.573,-1.248,
700597312,-0.272,0.48,-1.098,
700635836,-0.03,0.384,-0.901,
700674360,-0.118,-0.031,-0.779,
700712885,-0.118,-0.144,-0.889,
700751409,-0.119,-0.365,-0.781,
700789934,-0.138,-0.403,-0.913,
700828458,-0.109,-0.54,-0.905,
700866982,-0.064,-0.39,-0.877,
700905507,-0.097,-0.278,-0.949,
700944031,-0.076,0.006,-0.962,
700982555,-0.16,0.178,-1.124,
701021080,-0.242,0.347,-1.206,
701059604,-0.179,0.43,-1.208,
701098129,-0.158,0.375,-1.147,
701136653,-0.144,0.236,-1.099,
701175178,-0.026,0.098,-1.024,
701213702,-0.092,-0.057,-0.977,
701252227,-0.127,-0.169,-0.928,
701290751,-0.077,-0.323,-0.88,
701329276,-0.124,-0.287,-0.905,
701367800,0.1,-0.132,-0.926,
701406324,0.296,-0.217,-0.952,
701444849,0.615,-0.168,-1.022,
701483373,0.654,-0.323,-1.036,
701521898,-0.016,-0.13,-1.085,
701560423,-0.499,0.097,-1.057,
701598947,-0.615,0.16,-0.989,
701637471,-0.697,0.027,-1.038,
701675996,-0.595,-0.008,-0.981,
701714520,-0.427,0,-0.955,
701753045,-0.253,-0.076,-0.946,
701791569,-0.096,-0.049,-0.978,
701830094,0.028,-0.007,-1.002,
701868618,0.18,-0.053,-1.09,
701907142,0.323,-0.039,-1.099,
701945667,0.426,-0.005,-1.082,
701984191,0.621,-0.137,-1.011,
702022716,0.63,-0.181,-0.946,
702061241,0.347,-0.075,-0.94,
702099765,0.018,-0.013,-0.981,
702138289,-0.268,0,-0.997,
702176814,-0.524,-0.019,-1.037,
702215338,-0.585,-0.021,-1.048,
702253863,-0.598,-0.034,-1.022,
702292387,-0.503,-0.043,-1.003,
702330911,-0.39,0.002,-0.962,
702369436,-0.247,-0.036,-0.976,
702407960,-0.107,-0.025,-0.987,
702446485,0.085,-0.039,-0.974,
702485009,0.254,-0.046,-0.979,
702523534,0.481,-0.075,-0.922,
702562059,0.503,-0.062,-0.959,
702600582,0.241,0.001,-1.066,
702639107,-0.178,0.08,-1.304,
702677632,-0.447,0.188,-1.417,
702716156,-0.444,0.126,-1.386,
702754680,-0.261,-0.001,-1.193,
702793205,-0.096,-0.058,-0.967,
702831729,-0.075,-0.05,-0.82,
702870254,-0.053,0.012,-0.684,
702908778,0.071,0.028,-0.512,
702947303,0.051,0.066,-0.508,
702985827,0.009,0.098,-0.585,
703024352,-0.053,0.102,-0.781,
703062876,-0.206,0.178,-1.107,
703101401,-0.238,0.145,-1.428,
703139925,-0.299,0.084,-1.73,
703178450,-0.148,0.058,-1.702,
703216974,-0.068,0.063,-1.438,
703255498,-0.041,0.078,-1.156,
703294023,-0.04,0.049,-0.935,
703332547,-0.049,0.11,-0.765,
703371072,-0.002,0.177,-0.608,
703409596,0.086,0.135,-0.499,
703448121,0.148,0.114,-0.388,
703486645,0.039,0.161,-0.492,
703525170,-0.035,0.153,-0.644,
703563694,-0.159,0.078,-0.96,
703602219,-0.22,-0.045,-1.316,
703640743,-0.222,-0.118,-1.588,
703679268,-0.264,-0.089,-1.675,
703717792,-0.239,-0.126,-1.602,
703756317,-0.068,-0.142,-1.298,
703794841,0.019,-0.197,-0.998,
703833366,0.017,-0.221,-0.849,
703871890,0.073,-0.08,-0.704,
703910414,0.174,-0.079,-0.634,
703948939,0.27,-0.079,-0.618,
703987464,0.281,-0.135,-0.662,
704025988,0.079,-0.215,-0.819,
704064513,-0.422,-0.205,-1.094,
704103037,-0.621,-0.123,-1.258,
704141562,-0.646,-0.072,-1.274,
704180086,-0.569,-0.065,-1.261,
704218610,-0.321,-0.013,-1.148,
704257135,-0.127,0.036,-1.063,
704295659,-0.007,0.035,-0.959,
704334184,0.132,0.013,-0.894,
704372709,0.271,0.016,-0.847,
704411233,0.437,-0.046,-0.739,
704449757,0.366,-0.033,-0.756,
704488282,0.139,0.052,-0.84,
704526806,-0.248,0.162,-1.07,
704565331,-0.531,0.334,-1.341,
704603855,-0.514,0.337,-1.415,
704642380,-0.428,0.171,-1.429,
704680904,-0.152,-0.062,-1.094,
704719429,-0.058,-0.08,-0.897,
704757953,0.025,-0.073,-0.694,
704796478,0.03,-0.138,-0.642,
704835002,-0.013,-0.109,-0.666,
704873526,-0.085,-0.095,-0.718,
704912051,-0.262,0.038,-0.888,
704950575,-0.437,0.17,-1.072,
704989100,-0.487,0.256,-1.212,
705027624,-0.43,0.222,-1.304,
705066149,-0.308,0.208,-1.321,
705104673,-0.111,0.078,-1.254,
705143198,0.104,-0.067,-1.079,
705181723,0.212,-0.07,-0.854,
705220247,0.266,-0.204,-0.732,
705258772,0.341,-0.164,-0.602,
705297296,0.442,-0.066,-0.722,
705335821,0.142,-0.057,-1.007,
705374345,-0.306,0.033,-1.418,
705412869,-0.482,0.146,-1.448,
705451394,-0.689,0.127,-1.432,
705489918,-0.557,0.007,-1.237,
705528443,-0.3,-0.066,-1.047,
705566968,-0.135,-0.116,-0.804,
705605492,-0.068,-0.044,-0.692,
705644017,-0.089,0.014,-0.629,
705682541,-0.132,-0.057,-0.705,
705721066,-0.099,0.02,-0.741,
705759590,-0.296,0.075,-0.875,
705798115,-0.043,-0.067,-0.895,
705836639,0.054,-0.186,-1.176,
705875164,-0.091,-0.004,-0.921,
705913688,-0.081,-0.344,-1.715,
705952213,-0.118,-0.053,-1.249,
705990737,-0.208,-0.079,-1.336,
706029262,-0.233,0.081,-1.27,
706067786,-0.175,0.061,-1.073,
706106311,-0.127,0.037,-0.908,
706144835,-0.011,0.099,-0.809,
706183359,0.081,0.153,-0.721,
706221884,0.148,0.207,-0.682,
706260409,0.147,0.074,-0.715,
706298933,0.034,0.076,-0.742,
706337457,-0.023,0.011,-0.831,
706375982,0.012,-0.071,-1.013,
706414507,-0.078,-0.103,-1.078,
706453031,-0.121,-0.022,-1.371,
706491556,-0.208,0.02,-1.494,
706530080,-0.273,0.104,-1.349,
706568605,-0.161,0.203,-1.435,
706607129,-0.114,0.387,-1.034,
706645654,-0.043,0.422,-0.856,
706684178,0.047,0.346,-0.799,
706722702,0.081,0.2,-0.732,
706761228,0.132,0.301,-0.679,
706799752,0.162,0.06,-0.674,
706838276,0.056,-0.09,-0.784,
706876801,0.048,-0.262,-1.047,
706915325,-0.048,-0.59,-1.261,
706953850,-0.186,-0.574,-1.392,
706992374,-0.334,-0.493,-1.224,
707030899,-0.374,-0.538,-1.061,
707069423,-0.355,-0.236,-0.728,
707107948,-0.255,-0.174,-0.795,
707146473,-0.171,-0.082,-0.728,
707184997,-0.057,-0.008,-0.768,
707223521,0.028,-0.101,-0.912,
707262046,0.196,0.129,-1.061,
707300570,0.262,0.367,-1.312,
707339095,0.166,0.101,-1.235,
707377619,0.142,0.178,-1.101,
707416144,0.096,0.328,-1.082,
707454669,0.032,0.45,-1.061,
707493193,-0.055,0.417,-1.019,
707531718,-0.141,0.358,-0.697,
707570242,-0.255,0.267,-0.878,
707608767,-0.245,0.349,-1.193,
707647291,-0.107,0.221,-1.079,
707685816,-0.46,-0.13,-0.626,
707724340,-0.465,-0.527,-0.845,
707762865,-0.375,-0.888,-0.842,
707801390,-0.437,-0.703,-0.389,
707839914,-0.477,-0.762,-0.218,
707878439,-0.436,-0.983,-0.126,
707916963,-0.428,-0.932,-0.189,
707955487,-0.379,-1.283,-0.111,
707994012,-0.357,-0.967,-0.233,
708032537,-0.364,-0.902,-0.205,
708071061,-0.333,-0.961,0.086,
708109586,-0.279,-0.689,0.044,
708148110,-0.348,-1.148,-0.272,
708186635,-0.409,-0.909,0.117,
708225159,-0.55,-0.77,0.768,
708263684,-0.448,-0.856,0.474,
708302208,-0.513,-0.578,0.754,
708340733,-0.276,-0.35,0.857,
708379258,-0.519,-0.44,0.571,
708417782,-0.23,-0.394,0.691,
708456306,-0.19,-0.463,0.804,
708494831,-0.011,-0.139,0.937,
708533356,0.125,-0.121,0.82,
708571880,0.265,0.381,0.791,
708610405,0.414,0.569,0.823,
708648930,0.33,0.508,1.356,
708687454,0.792,0.15,0.945,
708725979,0.357,-0.158,1.137,
708764503,0.212,-0.181,1.26,
708803027,0.114,0.016,1.049,
708841552,0.144,-0.045,0.766,
708880077,-0.268,0.376,0.87,
708918602,-0.134,0.172,0.723,
708957126,-0.255,0.109,0.786,
708995650,-0.205,0.184,0.703,
709034175,-0.432,0.206,1.116,
709072700,-0.164,0.127,1.006,
709111224,-0.166,0.085,1.223,
709149749,-0.076,0.106,1.226,
709188273,0.109,0.127,1.039,
709226798,0.161,0.083,1.068,
709265323,0.272,0.09,0.955,
709303847,0.475,0.073,0.748,
709342372,0.497,0.088,0.753,
709380896,0.461,0.083,0.794,
709419420,0.59,0.027,0.791,
709457945,0.484,-0.128,1.028,
709496470,0.195,-0.035,1.17,
709534994,0.09,0.099,1.02,
709573519,-0.019,0.073,1.01,
709612044,-0.158,0.124,1.021,
709650568,-0.173,0.169,0.902,
709689092,-0.231,0.144,0.911,
709727617,-0.359,0.207,0.851,
709766141,-0.509,0.186,0.953,
709804666,-0.487,0.25,0.921,
709843191,-0.437,0.279,0.927,
709881715,-0.437,0.301,1.015,
709920240,-0.316,0.252,1.021,
709958764,-0.143,0.169,0.999,
709997289,0.043,0.132,0.938,
710035814,0.097,0.042,0.967,
710074338,0.088,0.057,0.948,
710112863,0.104,0.096,0.862,
710151387,0.14,0.127,0.875,
710189912,0.189,0.122,0.93,
710228436,0.227,0.107,1.035,
710266961,0.328,0.033,1.061,
710305485,0.334,-0.072,1.125,
710344010,0.257,-0.041,1.086,
710382534,0.2,0.019,0.96,
710421059,0.064,0.075,0.938,
710459584,0.021,0.121,0.868,
710498109,0.052,0.169,0.729,
710536633,-0.122,0.186,0.851,
710575157,-0.147,0.118,0.99,
710613682,-0.162,0.124,1.008,
710652207,-0.23,0.13,1.02,
710690731,-0.361,0.149,1.079,
710729256,-0.478,0.205,1.061,
710767780,-0.462,0.23,0.975,
710806305,-0.394,0.257,0.9,
710844829,-0.344,0.253,0.875,
710883354,-0.292,0.253,0.827,
710921879,-0.267,0.271,0.812,
710960403,-0.261,0.296,0.883,
710998928,-0.186,0.286,0.919,
711037453,-0.058,0.213,0.96,
711075977,0.003,0.135,0.993,
711114502,0.011,0.162,1.035,
711153026,0.088,0.126,1.059,
711191551,0.156,0.067,1.076,
711230075,0.199,0.009,1.059,
711268599,0.237,0.006,1.018,
711307125,0.218,0.006,0.964,
711345649,0.068,0.121,0.941,
711384174,0.002,0.189,0.906,
711422698,-0.021,0.184,0.873,
711461222,-0.095,0.226,0.902,
711499747,-0.122,0.219,0.912,
711538272,-0.198,0.198,0.988,
711576797,-0.216,0.165,1.032,
711615321,-0.246,0.194,0.979,
711653845,-0.305,0.183,0.959,
711692370,-0.407,0.209,0.954,
711730895,-0.486,0.246,0.948,
711769419,-0.456,0.289,0.88,
711807944,-0.393,0.36,0.897,
711846468,-0.306,0.297,0.976,
711884993,-0.199,0.163,0.981,
711923518,-0.108,0.166,0.912,
711962042,-0.101,0.2,0.915,
712000567,-0.002,0.196,0.946,
712039091,0.056,0.115,0.976,
712077616,0.156,0.084,0.955,
712116140,0.188,0.082,0.977,
712154666,0.198,0.101,0.98,
712193190,0.153,0.147,1.019,
712231714,0.131,0.133,1.008,
712270239,0.074,0.107,1.017,
712308764,0.104,0.068,0.954,
712347288,0.076,0.083,0.895,
712385813,-0.02,0.161,0.884,
712424337,-0.074,0.153,0.868,
712462862,-0.224,0.139,0.976,
712501386,-0.283,0.213,0.941,
712539911,-0.352,0.249,0.95,
712578436,-0.466,0.266,1.021,
712616961,-0.496,0.291,1.017,
712655485,-0.477,0.248,1.009,
712694009,-0.464,0.244,0.989,
712732534,-0.429,0.291,0.965,
712771059,-0.34,0.254,0.943,
712809584,-0.239,0.178,0.887,
712848108,-0.136,0.233,0.865,
712886633,-0.005,0.192,0.856,
712925157,0.03,0.177,0.901,
712963682,0.071,0.179,0.894,
713002207,0.082,0.202,0.901,
713040731,0.069,0.184,0.949,
713079255,0.082,0.154,1.027,
713117780,0.135,0.121,1.022,
713156305,0.124,0.059,1.074,
713194829,0.113,0.106,1.055,
