#Format version: 1.0
time[us],accX[g],accY[g],accZ[g],
754300827,0.012,-0.001,-1.021,
754339352,0.011,0.008,-1.014,
754377877,0.015,-0.007,-1.026,
754416402,0.005,-0.002,-1.008,
754454927,0.003,0.01,-1.011,
754493452,-0.009,0.068,-1.062,
754531977,-0.063,0.098,-1.131,
754570502,-0.095,0.058,-1.268,
754609027,-0.058,-0.284,-1.703,
754647552,0.042,-0.017,-1.728,
754686077,-0.012,0.094,-1.031,
754724602,0.016,0.246,-0.617,
754763127,-0.02,0.285,-0.349,
754801652,-0.144,0.282,0.061,
754840178,-0.097,0.188,0.142,
754878702,-0.107,-0.161,-0.033,
754917227,0.084,0.026,-0.831,
754955753,0.523,0.188,-2.345,
754994278,0.192,-0.002,-2.587,
755032802,-0.064,-0.241,-2.219,
755071328,0.019,-0.18,-1.583,
755109853,-0.078,0.047,-1.026,
755148378,-0.168,0.113,-0.591,
755186903,-0.121,0.187,-0.12,
755225428,-0.189,0.339,0.353,
755263953,-0.059,0.087,0.369,
755302477,-0.125,0.134,0.343,
755341003,0.228,-0.005,-0.988,
755379528,0.443,0.128,-2.877,
755418053,0.188,-0.599,-3.509,
755456578,0.068,-0.395,-2.765,
755495103,0.086,-0.142,-1.576,
755533628,-0.157,-0.003,-0.404,
755572153,-0.224,0.127,0.325,
755610678,-0.203,0.587,0.667,
755649203,-0.062,0.363,0.797,
755687728,-0.002,0.13,0.68,
755726253,-0.011,-0.225,0.276,
755764781,0.39,-0.373,-1.67,
755803303,0.606,-0.362,-3.872,
755841828,0.299,-0.55,-3.739,
755880353,0.052,-0.282,-2.341,
755918878,-0.004,-0.028,-1.244,
755957403,-0.171,-0.022,-0.284,
755995928,-0.094,0.246,0.151,
756034453,0.035,0.304,0.565,
756072978,-0.128,0.041,1.345,
756111504,-0.212,-0.431,1.475,
756150028,0.266,-0.326,-0.227,
756188553,0.748,0.325,-3.264,
756227078,0.832,0.017,-3.994,
756265604,0.467,-0.361,-3.437,
756304128,0.099,-0.515,-1.467,
756342654,0,-0.454,-0.208,
756381179,-0.256,-0.088,0.878,
756419703,-0.23,0.551,1.138,
756458228,0.002,0.315,1.032,
756496754,-0.082,-0.035,1.22,
756535279,0.002,-0.235,0.504,
756573804,0.339,-0.048,-2.061,
756612329,0.516,-0.018,-3.977,
756650853,0.269,-0.517,-3.922,
756689379,-0.066,-0.717,-1.945,
756727903,-0.248,-0.291,-0.244,
756766428,-0.211,0.009,0.532,
756804954,-0.095,0.6,1.025,
756843479,0.01,0.361,1.19,
756882004,-0.133,0.087,1.373,
756920529,-0.042,-0.292,0.617,
756959054,0.299,-0.386,-1.668,
756997579,0.564,0.129,-3.944,
757036104,0.321,-0.108,-3.944,
757074629,-0.068,-0.602,-2.328,
757113154,-0.254,-0.262,-0.625,
757151679,-0.075,0.206,0.236,
757190204,0.127,0.157,1.094,
757228729,0.286,0.095,1.187,
757267254,0.423,-0.15,0.971,
757305780,0.989,0.535,-0.806,
757344304,1.377,0.813,-2.791,
757382829,0.433,0.645,-2.838,
757421354,-1.015,-0.609,-1.731,
757459879,-2.857,-1.128,-0.632,
757498404,-2.414,-1.384,-0.493,
757536930,-0.557,-0.289,-0.918,
757575455,1.113,0.296,-0.84,
757613979,2.314,0.862,-1.222,
757652505,2.744,0.968,-1.524,
757691029,2.178,0.662,-0.94,
757729555,1.268,0.368,-0.755,
757768080,-0.223,0.105,-0.482,
757806605,-2.412,-1.047,-0.889,
757845130,-3.607,-2.473,0.033,
757883655,-2.138,-1.21,-0.107,
757922180,0.332,0.039,-1.075,
757960705,1.936,0.478,-1.324,
757999230,2.633,1.009,-1.354,
758037755,2.48,1.125,-1.449,
758076280,1.503,0.594,-0.724,
758114805,0.589,0.191,-0.717,
758153330,-0.379,-0.302,-0.866,
758191855,-2.004,-1.049,-0.85,
758230381,-3.006,-1.993,-0.147,
758268905,-1.964,-1.181,-0.007,
758307431,0.483,0.146,-1.374,
758345955,2.039,0.958,-1.966,
758384481,2.44,1.03,-1.649,
758423005,2.285,0.595,-1.181,
758461530,1.397,0.493,-0.636,
758500056,0.164,0.19,-0.584,
758538580,-1.529,-0.699,-0.857,
758577106,-3.214,-1.762,-0.544,
758615631,-2.717,-1.78,0.349,
758654156,-0.38,-0.28,-0.142,
758692681,1.506,0.662,-1.304,
758731206,2.549,1.019,-3.413,
758769731,1.774,-0.109,-3.184,
758808256,0.736,-0.859,-1.81,
758846781,0.433,-0.519,-0.553,
758885306,0.215,0.175,0.723,
758923831,-0.615,0.419,1.756,
758962356,-0.975,-0.052,1.675,
759000881,-0.679,0.013,0.019,
759039406,0.367,0.097,-3.142,
759077932,0.607,-0.53,-3.987,
759116456,0.384,-0.883,-3.083,
759154981,0.54,0.286,-1.194,
759193507,0.732,1.435,0.526,
759232031,0.747,1.465,1.159,
759270557,0.299,0.172,1.463,
759309082,-0.319,-0.866,-0.016,
759347607,-0.918,-2.221,-1.549,
759386132,-0.811,-1.455,-2.863,
759424657,0.167,-0.047,-2.709,
759463182,1.556,0.852,-2.035,
759501707,2.136,1.713,-1.228,
759540232,1.728,1.485,-0.47,
759578757,0.983,1.033,0.217,
759617282,-0.09,-0.403,-0.379,
759655807,-0.961,-2.731,-0.919,
759694333,-1.011,-3.797,-1.132,
759732857,-0.152,-1.942,-0.604,
759771382,1.198,0.232,-1.183,
759809908,2.176,2.672,-1.894,
759848433,1.676,3.891,-1.479,
759886958,1.074,1.93,-0.349,
759925483,0.415,-0.347,-0.123,
759964008,-0.014,-2.266,-0.221,
760002533,-0.275,-3.685,-0.927,
760041058,-0.251,-1.606,-0.926,
760079583,0.611,-0.005,-1.287,
760118108,1.419,2.62,-1.42,
760156633,1.467,3.572,-1.318,
760195158,1.369,1.228,-0.756,
760233683,0.506,-1.141,-0.209,
760272208,-0.004,-3.249,-0.631,
760310733,-0.389,-3.254,-0.518,
760349258,-0.374,-1.009,-0.59,
760387783,0.613,0.199,-0.973,
760426308,1.446,2.128,-1.526,
760464833,1.5,3.18,-1.477,
760503358,1.236,2.052,-0.848,
760541884,0.754,-0.333,-0.394,
760580409,0.079,-2.65,-0.256,
760618934,-0.29,-3.395,-0.915,
760657459,-0.423,-1.255,-0.667,
760695984,0.169,0.924,-0.845,
760734509,1.069,2.327,-2.475,
760773034,0.64,2.214,-0.61,
760811559,0.293,-0.231,-1.304,
760850084,-0.241,-0.376,-0.69,
760888609,0.066,-0.562,-0.682,
760927134,0.468,0.202,-0.874,
760965659,0.521,-0.325,-0.09,
761004185,0.467,-0.227,0.038,
761042710,-0.8,-0.277,-0.624,
761081234,-2.775,1.087,-2.594,
761119760,-2.394,1.152,-2.368,
761158285,-1.094,-0.288,-0.939,
761196810,1.27,-1.074,1.734,
761235335,2.81,-0.976,1.947,
761273860,1.413,-0.631,1.037,
761312385,-1.087,-0.812,-0.642,
761350910,-2.651,-0.163,-2.4,
761389435,-2.491,-0.033,-2.463,
761427960,-0.525,-0.027,-0.834,
761466486,0.123,-0.149,-0.389,
761505010,0.477,0.417,-0.32,
761543535,0.253,0.835,-0.576,
761582060,0.405,0.776,0.455,
761620586,0.772,-0.09,0.704,
761659111,0.619,-1.701,1.367,
761697636,0.863,-2.012,1.522,
761736161,0.225,-2.005,1.167,
761774686,0.64,0.286,1.281,
761813211,-0.031,2.009,1.131,
761851736,0.021,1.186,0.13,
761890262,0.622,0.851,0.911,
761928787,-0.165,0.866,0.369,
761967312,0.214,0.717,-0.064,
762005837,-0.384,2.221,-0.461,
762044362,0.108,2.826,0.287,
762082887,0.104,1.076,0.907,
762121412,0.301,-1.566,1.2,
762159937,0.778,-0.792,0.388,
762198462,0.499,-0.684,1.47,
762236987,0.138,-1.091,0.75,
762275513,-0.044,-0.874,0.881,
762314037,0.036,-1.037,0.49,
762352562,0.683,-0.679,0.207,
762391088,-0.278,1.069,0.503,
762429613,-0.421,0.601,0.33,
762468138,-0.559,1.208,0.2,
762506663,-0.575,0.538,-0.634,
762545188,-0.202,0.471,-1.264,
762583713,-0.38,0.696,-0.759,
762622239,-0.232,-0.055,-0.852,
762660764,-0.244,0.328,-1.083,
762699288,-0.086,0.027,-1.15,
762737813,-0.046,-0.791,-0.452,
762776339,-0.071,-1.052,-0.622,
762814863,-0.223,-0.014,-1.489,
762853389,-0.586,0.817,-1.095,
762891914,-0.049,0.803,-0.995,
762930439,-0.251,-0.328,0.181,
762968964,1.013,-0.406,0.736,
763007489,0.217,-0.414,0.389,
763046014,0.322,-0.951,0.354,
763084539,0.556,-0.635,1.116,
763123064,0.195,-0.42,0.398,
763161590,0.245,-0.017,-0.251,
763200115,-0.229,-0.384,-1.416,
763238640,-0.07,-0.04,-1.068,
763277165,-0.18,0.281,-0.937,
763315690,-0.57,0.406,-1.53,
763354215,-0.322,1.27,-0.691,
763392740,-0.24,0.891,0.218,
763431265,-0.338,1.332,0.005,
763469791,-0.009,0.962,0.631,
763508316,0.148,0.276,0.638,
763546841,-0.006,0.015,0.547,
763585366,-0.045,-0.856,0.077,
763623891,0.325,-1.382,0.474,
763662416,-0.003,-0.803,0.269,
763700941,-0.409,-1.248,0.812,
763739466,0.023,-0.456,-0.567,
763777991,0.044,-0.695,-0.371,
763816516,0.09,-0.026,-0.426,
763855041,-0.211,0.092,-1.138,
763893567,-0.098,0.694,-1.527,
763932092,-0.186,0.623,-1.096,
763970617,-0.006,0.778,-0.809,
764009142,0.043,0.84,-0.553,
764047667,-0.805,0.267,-0.749,
764086191,-0.455,-0.062,-0.864,
764124717,-0.775,1.302,-0.219,
764163242,-0.431,0.54,-0.34,
764201767,-0.109,1.04,-1.113,
764240292,0.184,0.911,-1.626,
764278817,0.458,0.682,-0.953,
764317343,0.401,0.419,-1.024,
764355867,0.605,0.265,-0.702,
764394392,-0.217,-0.046,0.026,
764432918,-1.692,0.228,0.976,
764471443,-0.99,-0.53,0.517,
764509968,-0.632,-0.35,0.423,
764548493,-0.913,-0.297,0.782,
764587018,-1.27,-0.21,0.838,
764625543,-1.9,-0.487,0.618,
764664068,-1.194,-0.337,0.351,
764702594,-0.968,-0.263,0.027,
764741119,-1.044,-0.206,-0.288,
764779644,-0.332,0.261,-0.64,
764818169,0.081,0.163,-0.624,
764856694,0.444,0.026,-0.849,
764895219,0.843,0.147,-0.356,
764933744,1.19,0.514,0.406,
764972269,1.492,0.17,0.507,
765010795,0.224,0.136,0.019,
765049320,0.227,0.494,0.536,
765087844,0.491,-0.236,0.752,
765126370,-0.132,-0.344,0.221,
765164895,-0.698,0.359,0.484,
765203420,-0.837,0.281,0.585,
765241945,-0.936,0.373,0.977,
765280470,-1.265,0.678,1.394,
765318996,-1.366,0.312,1.784,
765357521,-1.17,-0.38,1.018,
765396046,-0.93,-0.041,1.757,
765434571,-1.352,-0.773,1.378,
765473096,-0.665,0.235,-0.557,
765511621,1.042,-0.449,0.132,
765550146,0.26,-0.168,-0.571,
765588671,0.268,-0.145,-1.149,
765627196,-0.133,-0.139,-1.15,
765665722,-0.031,-0.116,-0.469,
765704246,0.177,0.199,-0.646,
765742772,-0.298,0.627,-0.304,
765781297,-0.934,0.693,-1.102,
765819822,0.117,1.184,-1.008,
765858347,-0.767,0.016,-0.303,
765896872,-1.335,-0.186,-1.319,
765935397,-1.116,-0.043,-0.138,
765973923,-1.17,0.258,0.529,
766012448,-0.54,-0.393,0.1,
766050972,0.254,-0.092,0.738,
766089498,0.113,-0.274,0.927,
766128023,-0.446,-0.781,1.178,
766166548,-0.117,-0.392,0.629,
766205073,0.933,0.066,0.874,
766243598,0.922,-0.288,1.293,
766282123,0.415,-0.337,1.424,
766320648,0.242,-0.649,1.094,
766359174,0.151,-0.817,1.846,
766397699,1.238,-0.311,1.081,
766436224,-0.188,-0.556,0.159,
766474749,-0.393,0.008,-0.17,
766513274,-0.746,0.222,-0.84,
766551799,-0.525,-0.16,-0.564,
766590325,-0.105,-0.204,-1.224,
766628849,-0.134,-0.643,-1.279,
766667375,0.62,-0.37,-1.163,
766705900,0.537,-0.395,-0.875,
766744425,0.438,-0.712,-0.35,
766782950,0.88,-0.357,-0.02,
766821475,0.637,-0.402,-0.187,
766860004,0.461,-0.137,0.56,
766898526,1.105,-0.211,0.334,
766937050,0.671,-0.059,0.5,
766975576,0.898,0.083,0.457,
767014101,0.528,0.274,1.015,
767052626,0.68,0.289,1.71,
767091151,0.363,0.102,1.197,
767129677,0.627,0.026,0.748,
767168202,0.697,-0.506,0.984,
767206726,0.205,-0.8,0.521,
767245252,-0.157,-0.631,-0.08,
767283777,-0.469,-0.629,0.326,
767322302,0.362,-0.211,0.875,
767360827,-0.292,0.058,0.888,
767399352,-0.651,0.169,0.75,
767437877,-0.21,0.107,0.781,
767476402,0.21,0.487,0.793,
767514927,-0.469,0.702,0.245,
767553453,-0.642,0.706,-0.47,
767591978,-0.037,0.943,-0.318,
767630503,-0.394,0.647,-1.026,
767669028,-0.218,0.913,-0.976,
767707553,-0.636,0.371,-0.856,
767746078,-0.981,0.007,-1.118,
767784604,0.488,-0.469,-0.774,
767823128,0.642,-1.058,-0.981,
767861654,0.319,-0.982,-0.672,
767900179,-0.225,-0.685,-1.3,
767938704,-0.273,-0.302,-0.802,
767977229,-0.21,0.031,-0.622,
768015754,-0.576,0.352,-0.941,
768054279,-0.074,1.224,-0.056,
768092805,-0.293,1.063,0.234,
768131330,-0.24,0.825,0.406,
768169854,-0.115,0.805,0.294,
768208380,-0.647,0.725,0.033,
768246905,-0.025,0.173,0.593,
768285430,0.526,-1.235,1.112,
768323955,0.002,-0.751,0.752,
768362480,-1.079,-1.461,-0.342,
768401006,0.238,-0.401,-0.581,
768439530,0.055,-0.849,-0.27,
768478056,0.286,-0.396,-0.808,
768516581,0.012,-0.605,-1.13,
768555106,0.03,0.004,-1.043,
768593631,-0.736,-0.799,-0.777,
768632156,0.361,-0.511,-1.55,
768670681,-0.338,-0.094,-0.168,
768709206,0.802,-0.45,-1.15,
768747732,0.936,-0.322,-0.689,
768786257,1.577,-0.326,-1.009,
768824783,0.884,0.085,-0.635,
768863307,0.564,0.588,-0.67,
768901832,0.174,0.254,-0.516,
768940357,0.141,0.162,-1.215,
768978883,-0.391,0.39,-1.122,
769017407,-1.438,-0.205,-0.577,
769055933,-2.192,-0.709,-0.501,
769094458,-2.486,-0.964,0.309,
769132983,-1.472,-1.009,0.07,
769171508,-0.565,-1.054,-0.384,
769210033,1.283,0.619,-1.007,
769248559,2.312,1.909,-1.672,
769287083,2.036,1.782,-1.248,
769325608,1.41,0.889,-0.896,
769364134,0.805,0.324,-0.466,
769402659,0.303,0.253,-0.539,
769441184,-0.264,0.146,-0.856,
769479709,-1.087,-0.39,-0.504,
769518234,-1.738,-0.654,-0.603,
769556760,-2.447,-1.107,0.008,
769595285,-1.867,-0.853,0.243,
769633810,-0.99,-0.765,-0.192,
769672335,0.389,-0.068,-1.069,
769710860,1.545,1.164,-2.463,
769749385,1.762,1.363,-2.486,
769787910,1.494,0.852,-1.79,
769826435,0.992,0.374,-0.894,
769864960,0.491,0.352,-0.75,
769903485,-0.081,0.255,-0.624,
769942011,-0.87,-0.004,-0.807,
769980536,-1.753,0.074,-0.845,
770019061,-2.166,0.085,-0.382,
770057586,-1.92,-0.427,0.146,
770096111,-0.965,-0.687,0.138,
770134637,0.11,-0.683,0.483,
770173162,1.137,-0.322,-0.114,
770211687,1.361,0.495,-1.407,
770250212,1.646,1.613,-3.155,
770288737,1.202,0.751,-3.989,
770327262,0.188,-0.658,-3.02,
770365787,-0.071,-0.662,-1.725,
770404312,-0.156,-0.115,-0.234,
770442838,-0.062,0.152,0.961,
770481363,0,0.403,1.759,
770519888,-0.194,0.216,1.666,
770558413,-0.148,-0.054,0.912,
770596938,0.12,-0.402,-1.365,
770635464,0.468,0.32,-3.614,
770673989,0.202,0.324,-3.79,
770712513,0.058,0.217,-2.769,
770751039,-0.034,0.006,-1.709,
770789564,0.068,0.01,-0.844,
770828089,0.351,0.144,-0.426,
770866614,0.436,0.182,0.17,
770905139,0.276,0.154,0.843,
770943664,-0.539,-0.272,1.546,
770982190,-0.726,-0.238,0.555,
771020715,0.111,0.15,-1.669,
771059240,0.637,0.659,-3.858,
771097765,0.551,0.363,-3.856,
771136291,0.203,-0.034,-2.306,
771174816,-0.142,-0.388,-0.812,
771213341,-0.167,-0.526,0.258,
771251866,-0.289,0.243,0.776,
771290391,0.383,0.264,0.488,
771328916,0.423,0.634,0.11,
771367441,-0.478,0.26,-0.505,
771405967,-0.976,-0.204,-0.816,
771444491,-0.849,-0.03,-2.498,
771483017,-0.919,-0.143,-2.807,
771521542,-0.537,0.035,-2.249,
771560067,-0.054,0.034,-1.711,
771598592,0.128,0.213,-0.914,
771637117,0.066,0.542,0.658,
771675643,0.142,-0.216,-0.117,
771714168,0,0.046,0.349,
771752693,0.066,0.081,0.124,
771791218,-0.039,0.32,-0.648,
771829743,-0.925,0.922,-1.153,
771868268,-0.942,0.798,-2.06,
771906793,-0.072,0.143,-2.552,
771945319,1.321,-1.12,-1.79,
771983844,1.896,-1.655,-1.639,
772022369,1.139,-0.768,-0.074,
772060894,-0.01,-0.064,-0.467,
772099419,-1.195,0.447,-0.909,
772137944,-1.57,0.503,-1.396,
772176470,-1.635,0.201,-1.34,
772214995,-1.391,-0.055,-1.016,
772253520,-1.086,-0.06,-0.704,
772292045,-0.412,-0.117,-0.301,
772330570,0.719,-0.576,0.219,
772369096,1.624,-1.31,-0.03,
772407621,1.672,-1.41,-1.481,
772446146,0.358,-0.668,-2.578,
772484671,-0.622,0.313,-2.625,
772523196,-0.642,0.542,-2.155,
772561721,-0.473,0.165,-1.38,
772600247,-0.692,-0.214,-0.457,
772638772,-0.987,-0.846,0.013,
772677297,-1.056,-1.078,-0.201,
772715822,-0.976,-0.999,-0.426,
772754348,-0.955,-1.064,-0.402,
772792873,-0.715,-0.703,-0.683,
772831398,-0.23,-0.05,-0.951,
772869923,0.193,0.568,-1.399,
772908448,0.47,0.916,-1.616,
772946973,0.951,1.409,-1.848,
772985499,0.976,0.95,-1.535,
773024024,0.766,0.655,-1.037,
773062549,0.336,0.482,-0.815,
773101074,-0.073,-0.343,-0.731,
773139599,-0.656,-0.995,-0.666,
773178124,-1.013,-1.562,-0.454,
773216649,-1.297,-1.624,-0.346,
773255175,-1.296,-1.378,-0.513,
773293700,-0.828,-0.958,-0.526,
773332225,-0.412,-0.189,-0.487,
773370750,0.128,0.38,-0.797,
773409275,0.253,0.477,-1.221,
773447801,-0.204,0.473,-2.228,
773486326,-1.053,0.85,-3.003,
773524851,-1.378,0.412,-2.652,
773563376,-0.939,-0.621,-1.685,
773601901,-0.577,-1.088,-0.609,
773640427,0.034,-1.389,0.162,
773678952,0.536,-1.344,0.521,
773717477,0.502,-0.751,1.282,
773756002,0.102,-0.332,1.78,
773794527,-0.526,0.197,1.064,
773833053,-1.509,0.267,-0.798,
773871578,-2.11,-0.968,-3.532,
773910103,-1.959,-1.987,-3.994,
773948628,-1.243,-2.031,-3.402,
773987153,-0.648,-1.522,-1.765,
774025679,-0.313,-0.915,-0.539,
774064204,-0.091,-0.453,0.193,
774102729,-0.107,-0.277,0.995,
774141254,0.032,0.018,2.598,
774179782,-0.048,0.3,2.821,
774218304,-0.711,-0.267,0.825,
774256830,-1.473,-1.279,-2.879,
774295355,-1.659,-1.608,-3.991,
774333880,-1.345,-1.101,-3.607,
774372405,-0.893,-0.73,-2.237,
774410930,-0.625,-0.441,-0.907,
774449455,-0.531,-0.497,-0.086,
774487981,-0.55,-0.54,0.682,
774526506,-1.462,-0.258,0.342,
774565031,-2.694,0.173,-1.203,
774603556,-1.713,0.146,-1.366,
774642082,1.178,-1.594,-0.548,
774680607,3.519,-1.751,0.808,
774719132,2.668,-0.806,0.566,
774757657,1.123,-0.575,-0.358,
774796182,-0.04,-0.995,-0.95,
774834707,-1.587,-0.998,-1.248,
774873232,-3.087,-0.387,-1.842,
774911758,-3.712,-0.007,-1.689,
774950283,-2.797,-0.321,-1.197,
774988808,-1.352,-0.423,-0.753,
775027333,0.411,-0.501,-0.354,
775065859,2.685,-1.571,0.009,
775104384,3.565,-1.37,0.351,
775142909,1.873,-0.575,0.166,
775181435,0.229,-1.082,-0.514,
775219960,-1.126,-1.105,-0.633,
775258485,-2.574,-0.872,-1.259,
775297010,-3.341,-0.323,-1.926,
775335535,-2.894,-0.264,-1.494,
775374061,-1.686,-0.288,-0.836,
775412585,-0.259,-0.144,-0.29,
775451111,1.336,-0.703,0.07,
775489636,1.623,-1.812,-0.936,
775528161,0.405,-1.771,-2.615,
775566686,-0.897,-1.272,-2.486,
775605211,-0.761,-1.039,-1.029,
775643737,-0.302,-0.972,0.65,
775682262,-0.178,-0.17,1.78,
775720787,-0.367,0.228,2.48,
775759312,-0.679,0.089,2.076,
775797838,-0.854,-0.757,0.18,
775836363,-1.229,-1.907,-3.389,
775874888,-1.76,-2.399,-3.994,
775913413,-1.472,-2.078,-3.563,
775951939,-0.848,-1.39,-1.724,
775990464,-0.488,-0.749,-0.38,
776028989,-0.271,-0.345,0.486,
776067514,-0.141,-0.081,1.16,
776106039,-0.046,0.462,2.193,
776144564,-0.154,0.737,2.382,
776183089,-0.618,-0.25,0.705,
776221615,-0.98,-1.739,-2.053,
776260140,-1.289,-2.185,-3.627,
776298665,-1.511,-1.586,-3.586,
776337190,-1.18,-1.027,-2.476,
776375715,-0.846,-0.752,-1.141,
776414241,-0.832,-0.542,-0.475,
776452766,-1.153,-0.353,-0.257,
776491291,-1.263,0.015,-0.27,
776529816,-0.83,0.518,-0.299,
776568341,0.91,0.236,0.266,
776606867,3.069,-1.18,0.715,
776645392,2.913,-0.946,0.544,
776683917,0.768,-0.496,-0.151,
776722442,-1.084,-0.474,-1.07,
776760968,-2.659,-0.356,-1.79,
776799493,-3.271,-0.066,-2.046,
776838018,-2.457,-0.22,-1.343,
776876543,-1.348,-0.256,-0.885,
776915068,-0.212,-0.182,-0.745,
776953594,1.148,-0.463,-0.43,
776992119,3.088,-1.548,0.33,
777030644,3.086,-1.339,0.768,
777069169,0.94,-0.99,-0.154,
777107695,-0.83,-1.142,-0.731,
777146220,-2.413,-1.041,-1.193,
777184745,-3.043,-0.336,-1.958,
777223270,-2.626,-0.432,-2.597,
777261796,-1.333,-0.871,-2.633,
777300321,-0.422,-1.166,-1.725,
777338845,-0.336,-1.151,-0.805,
777377371,-0.377,-0.833,0.217,
777415896,-0.623,-0.635,1.084,
777454421,-0.435,0.369,1.719,
777492947,-0.219,0.416,1.561,
777531472,0.465,-0.804,0.185,
777570001,0.13,-1.908,-2.104,
777608522,-1.471,-1.635,-3.268,
777647047,-2.658,-1.21,-3.421,
777685573,-2.238,-0.944,-1.829,
777724098,-1.473,-0.693,-0.266,
777762623,-1.008,-0.234,0.509,
777801148,-0.111,-0.093,1.458,
777839673,0.985,-0.591,1.725,
777878199,1.7,-1.708,0.761,
777916724,0.45,-2.27,-1.245,
777955249,-0.97,-1.952,-2.674,
777993775,-2.309,-1.318,-2.82,
778032300,-2.9,-0.558,-2.489,
778070825,-2.55,-0.372,-1.138,
778109350,-1.686,-0.152,-0.111,
778147875,-1.021,-0.149,0.203,
778186400,-0.229,0.064,0.381,
778224926,1.062,-0.678,-0.037,
778263451,2.627,-2.715,-1.203,
778301976,2.107,-2.523,-1.314,
778340502,0.276,-1.153,-0.792,
778379026,-1.309,-0.827,-0.618,
778417552,-2.182,-0.412,-0.79,
778456077,-2.211,-0.598,-0.72,
778494603,-2.428,-0.56,-1.044,
778533128,-1.912,-0.035,-0.852,
778571653,-0.947,-0.094,-1.135,
778610178,0.504,-0.819,-2.291,
778648703,1.034,-1.541,-1.533,
778687228,0.14,-0.742,-0.412,
778725754,-0.489,0.19,0.211,
778764279,-0.547,0.604,0.214,
778802804,-0.138,-0.125,0.443,
778841329,-0.064,-0.772,0.697,
778879854,0.064,-1.151,0.308,
778918380,0.378,-1.622,0.357,
778956905,0.094,-1.885,0.608,
778995430,0.056,-1.287,0.526,
779033956,-0.027,-0.951,0.047,
779072481,-0.173,-1.76,-0.48,
779111006,0.252,-2.402,-0.111,
779149531,-0.604,1.086,0.762,
779188057,-0.197,0.41,-0.806,
779226582,0.33,0.473,-0.053,
779265107,0.472,0.64,-0.008,
779303632,0.108,1.168,0.501,
779342157,-0.395,0.417,0.061,
779380683,-0.514,0.047,-1.698,
779419208,-0.503,1.188,-2.663,
779457733,0.116,1.271,-2.056,
779496258,-0.061,0.208,-1.286,
779534784,0.156,0.039,-1.123,
779573309,-0.774,0.367,-0.167,
779611834,-0.208,-0.085,-0.716,
779650359,-0.971,-0.138,-0.176,
779688884,-0.862,0.304,-0.792,
779727410,-0.661,-0.241,-0.511,
779765935,-0.629,-0.279,-0.107,
779804460,-0.879,0.127,-0.204,
779842985,-1.223,0.159,0.617,
779881510,-0.977,0.132,0.532,
779920035,-1.151,0.141,0.187,
779958561,-1.07,0.3,0.106,
779997086,-1.115,0.162,0.013,
780035611,-1.232,0.085,-0.853,
780074136,-1.218,-0.879,-0.78,
780112662,-0.629,-0.112,-0.443,
780151187,-0.2,0.438,-0.848,
780189712,0.002,-0.018,-0.786,
780228237,0.245,0.343,-0.169,
780266762,1.181,0.48,-0.619,
780305288,0.454,0.47,0.449,
780343813,0.604,-0.033,0.859,
780382339,0.813,-0.055,0.829,
780420864,0.192,0.312,0.924,
780459389,0.546,-0.387,1.139,
780497914,-0.065,-0.041,0.617,
780536439,-0.205,-0.124,0.373,
780574965,-1.124,0.725,0.1,
780613490,-1.045,0.391,0.223,
780652015,-1.071,0.503,0.615,
780690541,-1.176,0.244,1.353,
780729066,-0.879,0.056,0.733,
780767591,-1.21,-0.808,0,
780806116,-0.951,-0.338,-0.036,
780844641,-0.956,-0.288,0.037,
780883167,-0.719,-0.378,-0.47,
780921691,-0.865,-0.154,-0.125,
780960217,-0.681,-0.545,-0.569,
780998742,-0.996,-0.581,-0.581,
781037267,-0.497,-0.099,-0.408,
781075792,-1.24,-0.426,-0.519,
781114318,-1.266,0.04,-0.066,
781152844,-1.914,-0.547,0.354,
781191369,-1.737,0.036,0.65,
781229894,-1.156,-0.182,0.778,
781268419,-0.702,-0.188,1.107,
781306944,-0.693,-0.071,0.442,
781345469,0.123,0.016,0.841,
781383995,-0.28,0.114,-0.017,
781422520,-0.112,-0.286,-0.806,
781461045,-0.011,-0.197,-0.538,
781499571,-1.484,0.661,-1.328,
781538095,-1.529,-0.082,-1.834,
781576621,-1.096,-0.448,-0.293,
781615146,-1.398,-0.019,-0.352,
781653671,-0.878,-0.53,-0.367,
781692196,-0.884,-0.302,-0.371,
781730722,-0.962,-0.267,0.024,
781769247,-1.091,0,0.26,
781807772,-0.911,-0.007,0.648,
781846297,-0.977,0.2,0.571,
781884823,-0.714,0.107,1.048,
781923348,-1.068,-0.076,0.318,
781961873,-0.03,1.014,0.511,
782000399,0.043,0.111,0.555,
782038924,-0.412,0.839,1.105,
782077449,0.07,0.447,0.728,
782115974,0.73,0.523,0.43,
782154499,1.482,0.241,0.718,
782193025,0.767,0.204,0.306,
782231550,1.08,-0.168,0.569,
782270075,1.335,-0.027,0.583,
782308601,-0.471,-0.348,0.919,
782347125,0.752,-0.201,0.802,
782385651,0.738,0.29,0.537,
782424176,1.091,0.431,0.659,
782462701,1.079,-0.113,0.51,
782501226,0.434,-0.303,-0.028,
782539752,-0.095,-0.47,0.27,
782578277,-0.134,0.139,-0.056,
782616803,-0.194,-0.328,-0.557,
782655327,-1.363,-0.699,-0.906,
782693853,-2.495,-0.21,-0.988,
782732378,-2.609,-0.173,-1.003,
782770903,-1.169,-0.263,-1.224,
782809428,-0.776,-0.772,-0.612,
782847954,-0.509,-0.103,-1.144,
782886479,0.155,-0.284,-1.469,
782925005,0.112,-0.377,-0.848,
782963529,-0.023,0.091,-1.017,
783002055,0.593,-0.227,0.039,
783040580,0.987,-1.074,-0.288,
783079105,0.283,-0.734,0.109,
783117631,0.467,-0.294,0.501,
783156156,0.357,-0.446,0.623,
783194681,0.281,0.027,0.495,
783233206,0.276,0.202,0.848,
783271732,0.206,0.505,1.193,
783310257,0.404,0.445,1.923,
783348782,0.465,-0.386,1.625,
783387307,-0.121,-0.067,1.371,
783425832,-0.247,0.153,-0.719,
783464358,0.511,0.871,-0.12,
783502883,-0.094,0.435,-1.002,
783541408,-0.112,0.811,-0.475,
783579933,-0.254,0.667,-0.636,
783618458,0.234,0.654,-0.187,
783656984,0.014,1.009,-0.25,
783695509,0.588,1.129,0.966,
783734034,0.12,1.168,0.247,
783772560,0.146,0.368,0.937,
783811085,-0.035,0.064,0.991,
783849611,0.001,-0.163,0.964,
783888136,0.206,-0.019,1.25,
783926661,0.528,-0.28,1.384,
783965186,0.33,-0.402,1.337,
784003712,0.893,-0.866,1.306,
784042237,-0.01,-0.867,-0.201,
784080762,0.289,-0.132,0.874,
784119287,-0.032,-1.019,-0.68,
784157812,-0.17,-0.428,-0.6,
784196338,-0.417,0.017,-0.636,
784234863,-0.112,-0.087,-0.898,
784273388,-0.386,0.637,-1.229,
784311914,-0.495,0.24,-0.575,
784350439,0.163,0.492,-1.076,
784388964,-0.139,0.463,-1.008,
784427489,0.139,0.78,-0.504,
784466015,0.342,1.219,-0.157,
784504540,-0.165,0.71,-0.662,
784543066,0.105,1.213,0.46,
784581591,0.349,1.218,-0.254,
784620116,0.419,0.995,-0.316,
784658641,0.116,0.77,-0.91,
784697166,-0.041,0.877,-0.955,
784735692,0.081,-0.373,-1.049,
784774217,0.258,0.118,0.097,
784812742,0.249,-0.538,1.073,
784851267,0.333,0.09,1.444,
784889792,0.101,0.79,1.037,
784928318,0.369,-0.209,1.155,
784966843,0.313,0.382,1.188,
785005368,0.272,1.012,0.462,
785043894,0.691,1.22,0.562,
785082419,0.235,1.179,-0.213,
785120944,-0.146,0.587,-1.088,
785159469,-0.232,0.283,-1,
785197995,-0.096,0.106,-1.066,
785236520,-0.085,0.517,-0.92,
785275045,0.081,-0.321,-1.13,
785313571,-0.568,-0.017,-0.648,
785352096,-0.211,-0.295,-1.187,
785390621,0.008,0.016,-0.718,
785429146,0.013,-0.269,-0.113,
785467672,0.086,-0.395,0.488,
785506197,0.489,-0.335,0.55,
785544722,0.322,-0.368,0.588,
785583247,1.833,-1.652,0.558,
785621773,0.399,0.213,1.039,
785660298,-0.469,-0.391,1.873,
785698823,-0.268,-0.479,1.608,
785737348,-0.235,0.087,1.029,
785775874,0.667,-1.012,0.829,
785814399,-0.179,0.08,0.557,
785852925,-0.989,-0.606,0.797,
785891450,-0.588,0.499,2.172,
785929975,-0.733,0.37,2.104,
785968500,-0.589,1.534,1.442,
786007025,-1.408,1.741,0.674,
786045551,-2.023,0.68,0.32,
786084076,-1.275,0.357,0.702,
786122601,-1.278,-0.578,0.193,
786161127,-0.554,-0.763,0.283,
786199652,-0.277,-0.899,-0.66,
786238177,-0.594,-1.107,-2.147,
786276702,-1.434,-1.023,-2.655,
786315228,-1.703,-1.263,-2.211,
786353753,-1.475,-0.683,-1.913,
786392279,-0.986,-0.108,-0.646,
786430804,-0.833,0.07,0.768,
786469329,-0.192,0.092,0.807,
786507854,-0.127,0.088,1.031,
786546380,-0.339,-0.078,0.074,
786584905,-1.037,-0.594,-0.166,
786623430,-1.265,0.021,-0.305,
786661955,-1.002,0.142,0.083,
786700481,-1.403,0.206,0.078,
786739006,-1.766,0.276,0.035,
786777531,-2.627,-0.307,0.196,
786816057,-2.998,-0.641,0.518,
786854582,-2.43,-0.852,1.169,
786893107,-1.982,-0.734,1.776,
786931633,-1.852,0.646,1.317,
786970158,-2.066,0.412,0.09,
787008683,-2.073,-0.633,-0.432,
787047209,-2.145,-1.302,-1.559,
787085734,-0.821,-0.522,-2.104,
787124259,-0.894,0.908,-2.53,
787162784,-1.134,1.703,-1.918,
787201310,-1.59,2.185,-0.254,
787239835,-3.614,0.617,0.342,
787278360,-2.043,-2.408,0.894,
787316885,-0.043,-0.499,0.256,
787355411,-0.81,-0.656,-0.328,
787393936,-1.283,-1.37,-0.22,
787432462,-1.875,-2.534,-0.523,
787470987,-2.24,-2.809,-0.789,
787509512,-1.78,-2.813,-0.184,
787548037,-0.923,-2.586,0.403,
787586562,-1.537,-1.608,0.881,
787625088,-1.788,0.998,0.945,
787663613,-1.077,0.992,1.054,
787702138,-1.077,0.295,1.51,
787740664,-0.203,0.284,1.475,
787779189,-0.582,0.031,1.914,
787817714,-0.862,-0.29,1.724,
787856240,-2.141,-1.087,-0.238,
787894765,-2.463,-0.579,-1.092,
787933290,-2.844,0.161,-2.883,
787971816,-2.909,-0.15,-2.477,
788010341,-3.083,0.558,-2.715,
788048866,-2.204,-0.234,-2.497,
788087391,-1.629,-0.521,-1.752,
788125917,-1.341,-1.097,-0.885,
788164443,-1.307,-0.489,-0.02,
788202968,-1.134,0.25,0.786,
788241493,-1.231,0.852,1.637,
788280018,-1.145,0.823,1.998,
788318543,-0.816,-0.327,2.168,
788357069,-1.494,-0.656,0.708,
788395594,-2.263,-0.753,-1.615,
788434119,-2.179,0.469,-3.068,
788472645,-1.476,0.768,-2.751,
788511170,-2.316,0.597,-2.202,
788549695,-0.823,1.107,-3.64,
788588220,-1.117,0.267,-3.781,
788626746,0.657,-0.708,-3.122,
788665271,0.065,-0.833,-2.943,
788703797,-1.563,-0.489,-1.917,
788742322,-0.942,0.041,-0.737,
788780847,-1.832,0.744,-0.116,
788819372,-1.315,0.553,0.187,
788857897,-0.652,0.007,0.891,
788896423,-0.31,-0.69,1.247,
788934949,-1.396,-0.563,0.276,
788973474,-1.46,-0.424,-0.1,
789011999,-0.536,-0.62,0.362,
789050524,-0.371,-0.312,2.061,
789089050,-0.444,-0.137,1.876,
789127575,-0.764,-0.512,0.929,
789166100,-0.506,-0.683,1.31,
789204625,0.05,-0.419,1.947,
789243151,-0.092,-0.541,1.862,
789281676,-0.339,-0.494,0.965,
789320201,-0.448,-0.297,0.324,
789358727,-0.048,-0.193,0.61,
789397251,-0.246,0.082,0.588,
789435777,-0.605,-0.216,0.15,
789474302,-0.771,-0.341,-0.166,
789512828,-0.088,-0.013,0.042,
789551353,-0.033,0.901,-0.763,
789589878,0.158,0.509,-0.355,
789628404,0.379,0.543,-0.184,
789666929,0.739,0.532,-0.717,
789705454,-0.321,0.062,-1.535,
789743980,0.024,0.879,-1.663,
789782505,0.186,0.575,-1.461,
789821030,-1.001,0.41,-1.167,
789859556,-0.7,-0.134,-0.329,
789898081,-0.994,0.183,-0.824,
789936606,-0.611,0.365,0.16,
789975131,-0.49,0.005,-0.254,
790013657,-0.764,0.272,0.094,
790052182,-0.619,0.019,0.401,
790090708,-0.609,-0.034,-0.085,
790129232,-1.027,0.054,-0.073,
790167758,-1.506,0.154,0.015,
790206283,-1.246,-0.286,-1.819,
790244809,-1.47,0.539,-2.268,
790283334,-1.115,1.411,-1.04,
790321859,-0.555,1.464,-0.741,
790360385,0,0.801,-0.006,
790398910,-0.14,1.25,-0.489,
790437435,-0.438,-0.099,-0.343,
790475961,-0.195,0.317,-0.114,
790514486,-0.073,0.742,-0.892,
790553011,-1.329,0.081,-0.247,
790591537,-1.964,0.042,1.554,
790630062,-0.909,-0.623,1.676,
790668587,-0.75,-0.556,1.607,
790707113,-0.654,-1.441,0.516,
790745638,0.338,-2.333,-0.357,
790784164,0.03,-1.782,-0.121,
790822688,-0.681,-1.267,0.032,
790861214,-0.659,-0.899,-0.184,
790899739,-0.608,-0.335,-0.05,
790938265,-0.801,0.212,0.105,
790976790,-1.236,1.017,0.595,
791015315,-0.856,2.396,-0.211,
791053841,-0.762,2.09,-1.479,
791092366,-1.276,2.394,-1.963,
791130891,-2.347,2.024,-1.07,
791169416,-3.563,0.545,-0.343,
791207942,-3.293,-0.673,1.137,
791246467,-2.073,-0.934,1.685,
791284993,-1.224,-0.849,0.659,
791323518,-1.505,-0.794,1.07,
791362043,-1.365,-1.508,1.226,
791400569,-1.001,-1.922,0.266,
791439094,-1.252,-1.589,-0.103,
791477620,-0.882,-1.292,-0.082,
791516145,-0.524,-0.782,0.044,
791554670,-0.081,0.692,-0.04,
791593195,0.62,1.32,-1.046,
791631721,1.01,0.262,-1.806,
791670246,1.004,0.074,-1.444,
791708772,-0.733,0.357,0.84,
791747297,0.777,0.247,0.499,
791785822,0.333,0.251,0.262,
791824348,0.212,0.777,-0.274,
791862873,0.387,0.599,-0.123,
791901398,-0.01,1.118,-0.096,
791939924,-0.075,1.145,-0.071,
791978448,0.362,1.16,-0.198,
792016974,-0.134,1.102,-0.986,
792055500,-0.125,0.069,-0.751,
792094025,0.176,-0.236,-1.426,
792132550,0.781,-0.896,-1.334,
792171076,0.676,-1.411,-0.13,
792209601,1.118,-1.242,-0.539,
792248126,0.442,-1.093,-1.311,
792286651,0.295,0.506,-0.395,
792325177,0.567,-0.254,-0.059,
792363702,0.219,-0.116,0.35,
792402228,0.457,-0.417,0.211,
792440753,0.316,-0.087,0.995,
792479278,0.265,0.965,0.989,
792517803,-0.141,0.828,1.369,
792556329,-0.047,0.611,0.711,
792594854,0.073,1.622,-0.077,
792633380,-0.08,0.805,0.574,
792671905,-0.699,1.077,-1.27,
792710430,0.224,0.437,-2.115,
792748955,1.346,-0.409,-0.826,
792787481,0.175,0.472,-1.258,
792826006,0.384,0.111,-1.086,
792864531,0.157,0.535,-1.193,
792903057,-0.35,0.986,-1.06,
792941582,-0.305,1.428,-1.246,
792980107,-0.382,1.482,-0.261,
793018632,0.132,1.545,-0.413,
793057158,-0.015,1.146,0.11,
793095683,-0.334,0.622,-1.027,
793134209,0.23,-0.494,-1.469,
793172734,0.57,-0.574,-0.201,
793211260,2.038,-0.824,-0.019,
793249784,0.67,-0.083,-0.323,
793288310,1.077,0.616,-0.378,
793326835,1.22,0.932,0.059,
793365361,0.909,1.637,-0.615,
793403886,1.001,1.863,-0.883,
793442411,0.994,-0.308,-1.757,
793480937,0.188,-0.025,-0.649,
793519462,0.39,-0.952,-0.11,
793557987,0.196,-0.992,-0.255,
793596512,0.254,0.172,0.396,
793635038,0.811,-1.4,0.837,
793673563,0.801,-1.074,0.174,
793712089,0.725,-0.675,0.525,
793750614,-0.27,-1.024,0.139,
793789139,-0.525,-1.494,-0.093,
793827665,-1.637,-1.079,-0.312,
793866191,-1.708,-0.131,-2.027,
793904716,-1.383,-0.092,-1.552,
793943241,-1.585,-0.466,-1.897,
793981766,-2.08,-0.605,-1.937,
794020292,-2.533,0.674,0.116,
794058817,-1.084,1.745,0.479,
794097343,-0.401,1.309,-0.317,
794135868,0.031,0.972,-0.386,
794174393,-0.345,0.064,-0.15,
794212918,-0.674,0.781,-0.383,
794251443,-0.711,1.434,-1.424,
794289969,0.089,1.116,-0.761,
794328495,0.056,1.194,-1.271,
794367019,-0.136,0.974,-1.673,
794405545,0.13,0.602,-1.283,
794444070,0.007,0.567,-1.168,
794482596,1.052,0.492,-0.838,
794521121,1.416,0.077,-0.706,
794559646,1.117,0.671,-0.717,
794598171,0.746,0.659,-0.698,
794636697,0.187,0.97,-0.838,
794675222,-1.058,1.289,-0.71,
794713747,-1.083,0.613,-0.052,
794752273,-0.683,0.073,-0.246,
794790798,-1.257,-1.171,0.843,
794829323,-1.57,-1.503,0.336,
794867849,-0.588,-0.674,0.212,
794906374,-0.699,-1.229,-0.664,
794944900,-0.755,-0.704,-0.66,
794983425,-0.825,-0.709,0.11,
795021950,-0.776,-0.624,-0.45,
795060475,-0.392,-1.363,-0.103,
795099001,-0.064,-0.827,0.632,
795137527,0.086,-0.199,0.871,
795176051,-0.284,0.479,0.459,
795214577,-0.32,1.592,0.823,
795253102,-0.343,0.955,0.498,
795291627,-0.475,0.858,0.347,
795330153,-1.045,0.625,0.397,
795368678,-1.17,0.641,0.758,
795407204,-0.946,0.76,0.573,
795445729,-1.342,0.323,1.092,
795484254,-0.635,0.256,1.103,
795522780,0.565,-0.153,0.909,
795561305,0.667,0.377,1.523,
795599831,0.54,0.038,1.035,
795638356,-0.057,0.366,0.781,
795676881,0.481,0.18,0.339,
795715407,0.366,-0.352,0.461,
795753931,0.488,0.232,1.068,
795792457,-0.076,-0.045,0.605,
795830983,-0.46,-0.01,0.233,
795869508,-1.963,1.618,0.182,
795908033,-0.645,0.597,0.36,
795946558,-0.307,1.607,-0.666,
795985084,-0.367,1.716,-0.484,
796023610,-0.184,1.746,-0.246,
796062135,-0.357,1.862,-0.449,
796100660,-0.267,1.55,-0.54,
796139185,-0.441,1.237,0.009,
796177711,-0.727,0.504,-0.528,
796216236,-1.336,0.048,-0.247,
796254762,-1.542,-1.02,-0.209,
796293287,-0.721,-1.595,0.177,
796331812,-0.238,-0.973,0.505,
796370338,-1.43,-0.994,-1.238,
796408863,-0.43,-1.146,-1.994,
796447388,-0.026,-0.183,-2.146,
796485913,-0.18,-0.471,-1.471,
796524439,0.219,-0.418,-0.813,
796562964,0.351,0.18,-0.296,
796601490,0.366,-0.227,-0.134,
796640015,0.342,-0.221,-0.384,
796678540,0.571,-0.518,0.008,
796717066,0.442,0.659,0.307,
796755591,-1.839,0.05,1.141,
796794117,-0.687,-0.59,1.459,
796832642,-0.588,-0.328,0.82,
796871168,-0.088,0.339,1.138,
796909692,1.122,2.241,2.015,
796948218,0.977,0.663,1.885,
796986743,0.562,0.676,0.451,
797025268,-0.145,0.392,0.011,
797063794,-0.371,0.038,-0.927,
797102320,-0.279,0.15,-0.475,
797140845,-0.415,0.589,-0.999,
797179370,-0.557,1.08,-1.766,
797217895,0.045,1.538,-2.035,
797256421,0.093,0.932,-1.614,
797294946,-0.623,-1.296,0.532,
797333471,-0.016,-0.924,-0.373,
797371997,-0.271,-0.084,0.33,
797410522,0.907,0.221,1.647,
797449048,-0.101,0.04,0.899,
797487573,0.247,0.191,1.24,
797526098,1.26,0.308,1.049,
797564624,1.392,0.157,0.636,
797603149,-0.168,-0.09,0.744,
797641674,-0.834,-0.237,1.245,
797680200,-1.42,0.001,1.666,
797718725,-2.03,-0.233,1.224,
797757251,-2.242,-0.423,0.894,
797795776,-2.038,-0.025,0.555,
797834301,-1.755,0.05,0.584,
797872827,-1.771,0.272,-0.01,
797911352,-1.878,0.58,-0.872,
797949878,-1.363,-0.236,-1.555,
797988403,-0.679,-0.801,-1.62,
798026928,-0.625,-1.166,-1.761,
798065454,-1.467,-1.263,-1.485,
798103979,-0.351,-0.787,-1.202,
798142505,-0.231,-0.686,-1.051,
798181030,-0.096,-0.98,-1.195,
798219555,0.239,-0.99,-0.764,
798258081,1.216,-0.875,-0.291,
798296606,0.538,-0.609,-0.996,
798335131,0.171,-0.2,-0.162,
798373657,0.322,-1.183,0.291,
798412182,0.061,-0.767,-0.175,
798450708,-0.23,0.214,0.425,
798489233,-0.306,1.225,1.96,
798527759,1.053,-0.187,2.668,
798566284,-0.263,-0.058,1.868,
798604809,-1.009,0.564,-1.293,
798643335,0.876,0.794,-0.303,
798681860,1.102,1.613,0.032,
798720385,1.362,1.681,0.43,
798758910,2.443,1.736,0.907,
798797436,3.375,1.558,-0.172,
798835961,0.466,3.501,-0.134,
798874487,-0.609,1.804,0.204,
798913012,-0.403,0.583,-0.319,
798951537,-0.406,-0.27,0.657,
798990063,-0.745,-0.241,0.554,
799028588,-0.733,0.004,-0.326,
799067114,-0.363,-0.53,-0.616,
799105639,0.018,-0.664,-0.579,
799144164,-0.258,-0.704,-0.477,
799182690,-0.488,-1.326,1.629,
799221215,-1.859,-0.87,0.204,
799259740,-1.222,-1.654,-0.671,
799298266,-0.78,-0.651,0.77,
799336792,-0.871,-0.463,-0.132,
799375317,-1.544,0.189,-0.6,
799413842,-1.035,-0.615,-0.183,
799452367,-0.745,-0.061,0.331,
799490893,-0.359,-0.019,0.301,
799529419,0.416,0.351,0.259,
799567944,0.902,1.432,-0.449,
799606469,0.352,1.96,-0.406,
799644994,-0.305,1.32,-0.462,
799683520,-1.112,0.644,-1.525,
799722046,-0.852,0.286,-1.057,
799760571,-0.534,-0.144,0.293,
799799096,-0.258,-0.122,0.501,
799837622,-0.395,-0.624,0.243,
799876147,0.44,-0.669,0.03,
799914672,0.754,-0.506,0.112,
799953198,0.685,0.341,0.883,
799991723,-0.303,-0.429,0.94,
800030248,0.984,-0.302,1.418,
800068774,0.545,-0.021,1.013,
800107299,0.773,-0.314,1.176,
800145825,1.047,-0.248,0.982,
800184350,0.626,-0.101,0.862,
800222875,0.959,-0.218,0.674,
800261401,1.098,0.18,0.484,
800299926,1.47,-0.153,0.082,
800338452,0.91,0.53,-0.19,
800376977,1.793,0.384,-0.147,
800415503,0.875,-0.543,-0.021,
800454028,0.062,-0.445,-0.117,
800492553,-0.67,-0.571,0.355,
800531079,-0.822,-0.129,1.361,
800569604,-0.982,-0.728,-0.222,
800608130,-1.466,-0.286,0.164,
800646655,-2.515,-0.53,0.388,
800685181,-0.931,0.043,-0.131,
800723706,-1.47,-0.708,-0.804,
800762231,-0.512,0.143,-0.286,
800800756,-0.244,-0.017,0.686,
800839282,-0.338,0.743,-0.098,
800877808,-0.633,0.528,-0.508,
800916333,-1.556,0.486,-0.512,
800954858,-0.762,0.649,-0.354,
800993384,-1.067,0.397,-1.228,
801031909,-1.337,0.932,-0.424,
801070435,-0.505,0.14,-0.065,
801108960,-0.727,0.132,-0.184,
801147486,-0.842,0.577,-0.73,
801186010,-1.359,0.816,-0.336,
801224536,-0.97,0.48,0.071,
801263062,0.158,-0.262,-0.41,
801301587,-0.206,-0.494,-0.934,
801340112,-0.874,-0.057,-1.01,
801378637,1.238,-0.013,-1.004,
801417163,1.487,0.839,-0.756,
801455688,-0.048,0.115,-0.894,
801494214,0.168,-0.082,-0.139,
801532740,0.06,-0.335,-1.636,
801571264,-0.053,-0.225,-0.958,
801609790,0,0.046,-1.681,
801648316,-0.351,0.5,-1.115,
801686841,1.185,-0.429,-0.202,
801725366,0.754,0.308,-0.382,
801763892,0.082,0.316,-1.002,
801802417,0.372,0.105,-0.86,
801840943,-0.152,0.581,-0.639,
801879468,-0.735,0.4,-0.719,
801917993,-0.545,0.763,-1.53,
801956519,-0.837,0.838,-0.282,
801995044,-0.61,-0.535,1.306,
802033570,-0.362,-0.651,0.588,
802072095,0.624,-0.148,0.398,
802110620,0.093,-0.149,1.867,
802149146,0.107,-0.245,1.383,
802187671,0.471,-0.584,1.077,
802226197,0.525,-0.535,0.575,
802264723,0.795,-1.5,0.572,
802303248,1.06,-0.94,0.077,
802341773,0.535,-0.584,0.992,
802380299,0.212,-0.24,0.458,
802418824,0.953,-0.457,0.392,
802457350,0.871,-0.109,0.524,
802495875,-0.078,-0.237,-1.402,
802534400,0.286,0.095,-2.106,
802572926,0.259,-0.102,-0.65,
802611451,1.279,-0.841,-0.153,
802649976,-0.363,-0.519,-0.384,
802688502,0.206,-0.857,-1.371,
802727027,-0.024,-0.76,-1.503,
802765552,0.22,-0.051,-1.012,
802804078,0.716,0.386,-1.77,
802842603,-0.111,-0.847,-1.423,
802881129,-0.907,-0.882,-0.292,
802919654,-0.894,-0.745,0.146,
802958180,-0.935,-0.93,-0.235,
802996705,-0.168,-0.446,-1.032,
803035230,0.051,-0.362,-2.191,
803073756,-0.232,0.025,-2.844,
803112281,-0.737,0.56,-1.807,
803150806,-0.08,0.718,-1.484,
803189332,1.145,0.78,-0.076,
803227857,1.626,0.437,1.677,
803266382,1.081,-0.437,1.714,
803304908,1.262,-0.457,0.156,
803343433,0.864,-0.307,0.769,
803381959,1.116,-0.069,1.328,
803420484,1.65,0.169,1.871,
803459010,1.488,0.513,1.209,
803497535,-0.733,0.878,0.563,
803536060,-0.017,-0.994,-1.712,
803574586,-0.674,-0.478,-0.953,
803613111,-0.061,-0.721,-0.305,
803651636,-0.121,-1.188,-0.351,
803690162,-0.716,-1.017,-0.042,
803728687,-1.322,-1.062,0.134,
803767213,-1.427,-0.829,0.098,
803805738,-1.333,-0.036,-0.249,
803844264,-0.945,0.618,-0.86,
803882789,-0.469,0.757,-1.112,
803921314,-0.725,0.672,-0.633,
803959840,-1.406,1.091,-1.843,
803998365,-1.477,1.169,-2.35,
804036890,-1.578,1.196,-1.626,
804075416,-0.724,0.863,0.141,
804113941,0.691,0.421,1.131,
804152467,0.744,0.157,0.234,
804190992,0.99,0.125,-0.116,
804229517,1.712,0.083,0.326,
804268043,1.188,0.31,-0.67,
804306568,1.052,0.275,-0.71,
804345094,1.713,0.118,-0.07,
804383619,1.174,0.015,0.117,
804422144,1.429,-1.143,-0.081,
804460670,1.499,-1.554,-0.805,
804499195,0.783,-0.96,-0.325,
804537721,0.936,-0.773,0.925,
804576246,0.314,0.162,1.348,
804614772,0.638,-0.88,1.272,
804653297,0.223,-0.852,1.419,
804691823,-0.367,-0.301,1.609,
804730348,-0.711,-0.346,1.424,
804768873,-0.32,-0.621,0.363,
804807398,-0.942,-0.587,0.307,
804845924,-1.618,0.681,0.725,
804884450,-1.176,2.252,1.018,
804922975,-0.241,0.533,1.453,
804961500,0.242,0.586,0.228,
805000026,0.878,1.173,-0.504,
805038551,0.387,2.55,-0.816,
805077077,-0.172,1.361,-0.993,
805115602,-1.206,0.83,-0.485,
805154128,-2.035,0.997,-0.7,
805192653,-2.156,1.11,-0.691,
805231179,-1.843,1.029,-0.248,
805269704,-1.57,1.005,0.071,
805308229,-1.757,0.654,0.04,
805346755,-1.831,-0.031,-0.347,
805385280,-1.385,-1.195,-0.854,
805423806,-1.061,-1.975,-0.461,
805462331,-0.587,-1.835,0.074,
805500856,-0.189,-0.846,0.238,
805539382,0.866,-1.175,-0.946,
805577908,0.579,-1.25,-0.159,
805616433,-0.048,-0.942,0.022,
805654958,0.689,-0.887,-0.666,
805693484,0.932,-0.695,-0.174,
805732009,0.919,-0.321,-0.418,
805770535,1.841,-0.091,1.551,
805809060,2.273,0.052,0.834,
805847585,1.331,-0.08,1.125,
805886111,0.508,-0.138,1.061,
805924637,-0.844,0.182,0.305,
805963162,-1.189,0.811,-0.266,
806001688,-1.647,1.197,-1.723,
806040213,-1.296,1.113,-2.38,
806078738,-0.883,0.946,-1.869,
806117263,-0.912,0.908,-1.888,
806155789,-0.988,1.321,-1.559,
806194314,-1.927,2.313,0.364,
806232841,-3.569,0.71,1.604,
806271366,-3.997,-0.894,2.484,
806309891,-3.21,-0.471,1.356,
806348417,-1.222,0.406,1.243,
806386942,-1.856,1.296,-0.005,
806425468,-1.966,0.911,-2.012,
806463993,-1.888,-0.093,-3.061,
806502518,-1.352,0.452,-1.36,
806541044,0.698,0.264,0.26,
806579569,1.381,-0.316,0.213,
806618095,-2.168,-1.181,0.066,
806656621,-1.698,-0.977,0.085,
806695145,0.093,-0.622,-0.204,
806733671,-0.221,-1.081,0.423,
806772196,-0.283,-1.077,0.74,
806810722,-0.896,-0.795,0.434,
806849248,-0.534,-0.863,0.503,
806887773,-0.244,-0.507,0.287,
806926299,-0.128,-0.499,-0.047,
806964824,-0.236,-1.678,-0.475,
807003349,-0.205,-1.209,-0.733,
807041874,0.442,-1.554,0.194,
807080400,0.361,-1.453,0.302,
807118925,0.158,-0.837,-0.109,
807157451,-0.931,-0.911,0.452,
807195976,-0.22,-0.744,-0.746,
807234502,0.594,-0.92,-1.084,
807273027,0.403,-0.828,-0.503,
807311552,0.377,-1.462,-0.625,
807350078,0.77,-1.382,-0.395,
807388603,0.372,-0.17,-0.805,
807427128,-0.02,0.481,-0.067,
807465654,-0.242,1.708,0.789,
807504180,-0.282,2.355,1.238,
807542705,-0.239,1.497,0.934,
807581231,0.286,-0.174,0.344,
807619756,-0.462,-0.221,-2.164,
807658282,-0.06,-0.164,-1.719,
807696807,1.019,0.261,-0.693,
807735332,1.367,0.4,-1.12,
807773858,1.468,0.44,-0.858,
807812383,0.863,0.154,-0.584,
807850908,0.119,-0.701,-0.802,
807889434,-0.714,-0.486,-0.78,
807927960,-1.748,0.345,-1.116,
807966485,-2.298,0.403,-0.736,
808005011,-2.253,0.444,-0.448,
808043536,-1.814,0.047,0.023,
808082061,-0.605,-0.602,0.852,
808120587,1.381,-1.394,2.54,
808159113,2.583,-0.99,3.683,
808197638,2.23,-0.876,1.957,
808236164,1.073,-0.754,-0.078,
808274689,-0.209,-0.431,-0.633,
808313215,-1.523,-0.134,-0.201,
808351740,-2.622,0.614,0.037,
808390266,-2.364,1.269,0.029,
808428791,-1.14,-0.067,0.355,
808467316,2.495,-2.264,0.484,
808505841,3.94,-1.458,0.083,
808544367,2.92,-0.686,-1.078,
808582893,1.621,-0.316,-1.01,
808621418,1.034,-0.703,0.383,
808659943,0.471,-0.035,0.368,
808698469,-0.667,0.817,1.075,
808736994,-1.699,0.409,0.905,
808775519,-2.188,-0.793,0.199,
808814045,-1.35,-0.319,0.006,
808852571,-0.231,-0.758,-0.965,
808891096,1.384,-1.008,-2.188,
808929622,2.343,-0.116,-2.434,
808968147,2.869,0.942,-1.496,
809006672,2.115,1.367,-0.659,
809045198,1.381,1.035,0.01,
809083724,0.809,0.324,0.301,
809122248,-0.105,-0.035,0.539,
809160774,-1.001,0.078,0.669,
809199300,-1.907,-0.666,0.524,
809237825,-2.688,-1.143,0.406,
809276351,-2.514,-0.689,0.487,
809314876,-1.745,-0.462,0.061,
809353401,-0.568,-0.592,-0.317,
809391927,1.444,-0.671,-1.905,
809430452,2.335,0.056,-2.969,
809468978,1.787,0.716,-2.375,
809507503,0.938,0.515,-1.693,
809546028,0.267,-0.295,-1.206,
809584554,-0.41,-1.212,-1.046,
809623079,-0.851,-1.161,-0.058,
809661605,-1.223,0.641,1.376,
809700130,-0.731,1.202,1.267,
809738656,-0.842,0.425,0.801,
809777182,-1.111,-0.528,0.16,
809815707,-0.169,-1.656,-1.917,
809854233,0.539,-1.634,-3.272,
809892758,1.191,-0.457,-2.701,
809931283,1.572,0.718,-1.943,
809969809,1.166,0.568,-1.343,
810008334,0.796,0.278,-0.907,
810046860,0.182,-0.112,-0.299,
810085385,-0.741,0.095,0.672,
810123910,-1.581,0.07,1.421,
810162436,-0.829,-0.644,0.944,
810200961,0.802,-0.183,-1.187,
810239487,1.64,-0.143,-3.355,
810278012,1.039,0.228,-3.492,
810316538,0.256,0,-2.118,
810355063,0.081,-0.031,-1.135,
810393588,-0.063,0.108,-0.268,
810432114,-0.037,0.298,0.169,
810470639,-0.296,0.132,0.769,
810509165,-0.513,0.386,1.029,
810547691,-0.512,0.245,0.686,
810586216,-0.042,-0.507,-0.051,
810624742,1.373,-0.818,-1.809,
810663267,1.537,-1.119,-3.092,
810701792,1.202,-0.798,-2.534,
810740318,0.879,-0.438,-1.951,
810778843,0.715,-0.608,-1.664,
810817368,0.317,-0.915,-0.674,
810855894,-0.472,-1.25,-0.26,
810894420,-1.098,-0.399,0.386,
810932945,-2.023,-0.151,0.657,
810971471,-2.48,-0.452,0.539,
811009996,-1.682,-0.116,0.63,
811048522,0.606,-0.75,-0.765,
811087047,1.866,-0.005,-2.939,
811125572,1.64,1.038,-2.745,
811164098,0.473,0.944,-0.881,
811202623,-0.258,0.149,-0.377,
811241149,-0.393,-0.101,0.125,
811279674,-0.598,-0.277,0.731,
811318199,-0.406,-0.281,0.324,
811356725,0.148,-0.164,-0.335,
811395251,1.046,0.625,-2.269,
811433776,1.085,0.611,-3.663,
811472301,0.448,-0.039,-2.49,
811510827,0.042,-0.694,-1.584,
811549353,-0.072,-0.761,-1.033,
811587878,-0.291,-0.175,-0.034,
811626403,-0.437,0.142,0.457,
811664929,-1.01,0.375,1.462,
811703455,-0.724,0.255,1.01,
811741980,0.155,0.192,0.014,
811780505,1.605,-0.039,-2.518,
811819031,1.908,-0.026,-3.779,
811857556,1.358,0.31,-2.459,
811896082,0.658,-0.328,-1.2,
811934607,-0.088,-0.884,-0.278,
811973133,-1.045,-0.706,0.883,
812011658,-1.806,-0.583,0.731,
812050183,-2.412,0.281,0.78,
812088709,-2.586,0.395,0.92,
812127235,-1.582,-0.565,0.954,
812165760,0.649,-0.666,0.403,
812204285,2.535,0.551,-1.915,
812242811,2.594,1.479,-2.373,
812281336,2.03,1.186,-1.912,
812319862,1.133,0.511,-1.249,
812358387,0.405,0.017,-0.636,
812396913,-0.12,-0.413,-0.293,
812435438,-0.672,-0.361,0.614,
812473964,-1.519,-0.069,1.604,
812512489,-1.246,0.049,1.564,
812551014,-0.137,-0.284,0.533,
812589540,0.286,-0.427,-1.299,
812628065,0.112,-0.103,-3.612,
812666591,-0.402,-0.295,-2.296,
812705117,-0.321,0.463,-1.764,
812743642,-0.172,0.166,-1.601,
812782168,0.12,0.287,-0.668,
812820693,0.612,0.891,-0.376,
812859219,1.169,1.175,-0.821,
812897744,1.169,1.189,-0.642,
812936269,0.969,0.583,-1.117,
812974795,0.617,-0.132,-1.204,
813013320,0.181,-1.067,-0.685,
813051846,-0.132,-1.371,-0.075,
813090371,-0.77,-0.373,0.548,
813128897,-2.559,0.564,0.067,
813167423,-2.694,-0.571,-1.44,
813205948,-1.822,-0.493,-0.702,
813244473,-1.175,-0.543,-0.088,
813282999,-0.302,-0.691,0.123,
813321525,2.932,-1.171,0.186,
813360050,2.922,-0.25,-1.156,
813398575,2.174,-0.273,-1.21,
813437101,0.565,-0.981,-0.222,
813475626,-0.843,-1.2,0.17,
813514152,-0.928,-0.572,0.23,
813552677,-1.275,-0.092,0.539,
813591203,-1.397,0.425,0.679,
813629728,-0.632,0.543,0.763,
813668254,0.731,0.38,0.079,
813706779,1.04,0.417,-1.778,
813745304,1.527,0.287,-3.437,
813783830,1.116,1.079,-3.722,
813822356,0.979,0.581,-2.358,
813860881,0.461,0.281,-1.353,
813899407,0.19,0.165,-0.617,
813937932,0.09,0.238,-0.03,
813976457,-0.232,0.413,0.509,
814014983,-0.94,0.537,0.682,
814053509,-1.12,0.408,0.647,
814092034,-1.647,-0.142,1.19,
814130559,-0.607,-0.799,1.441,
814169085,2.646,-2.751,-0.581,
814207610,1.805,-2.039,-1.555,
814246136,1.869,-0.421,-2.029,
814284662,1,0.185,-1.136,
814323187,0.339,0.607,-0.777,
814361713,0.549,0.823,-0.649,
814400238,0.69,1.214,-0.596,
814438763,0.841,1.277,-0.797,
814477289,0.871,0.887,-0.842,
814515815,0.621,0.438,-0.287,
814554340,-0.222,-1.423,-0.476,
814592866,-1.715,-2.268,-0.954,
814631391,-2.213,-1.942,-1.097,
814669916,-1.942,-1.257,-0.682,
814708442,-1.728,-0.304,0.103,
814746968,-0.088,-0.249,0.462,
814785493,1.55,0.351,0.336,
814824019,2.29,1.035,-0.229,
814862544,2.416,1.379,-0.981,
814901069,1.849,1.001,-1.116,
814939595,1.133,0.696,-0.924,
814978121,0.538,0.551,-0.593,
815016646,0.171,0.752,-0.326,
815055171,-0.086,0.932,-0.04,
815093697,-0.651,0.62,0.639,
815132222,-0.839,-0.204,0.052,
815170748,-0.481,-0.962,-1.487,
815209273,-0.453,-1.746,-2.277,
815247799,-0.958,-2.117,-1.603,
815286324,-0.475,-1.524,-1.314,
815324850,-0.618,-1.056,-0.691,
815363375,-0.865,-0.643,-0.15,
815401901,-0.673,-0.244,0.226,
815440427,-1.275,0.11,0.791,
815478952,-0.773,0.345,0.944,
815517477,0.622,0.013,0.504,
815556003,1.776,0.589,-0.57,
815594528,2.463,1.296,-2.1,
815633054,1.982,1.315,-1.969,
815671579,0.937,0.821,-1.029,
815710105,-0.015,0.125,-0.746,
815748630,-0.925,-0.335,-0.344,
